Aspalt(for bike) Accelerrated vel,,,,,
TIME,delta,Vel(km/h),Acc x (m/s^2),Acc y (m/s^2),Acc z (m/s^2)
114518,558,0,1.77,5.26,9.85
114522,558,0,1.8,5.33,9.45
114526,558,0,1.88,5.18,9.73
114530,558,0,1.84,5.26,9.89
114533,558,0,1.96,5.22,9.45
114537,558,0,1.88,5.22,9.69
114541,558,0,1.84,5.22,9.92
114545,558,0,1.84,5.22,9.73
114548,558,0,1.92,5.26,9.69
114552,558,0,1.84,5.14,9.89
114556,558,0,1.88,5.22,9.85
114561,558,0,1.84,5.22,9.81
114564,558,0,1.8,5.22,9.89
114568,558,0,1.88,5.18,9.89
114572,558,0,1.84,5.18,9.65
114576,558,0,1.88,5.14,9.81
114579,558,0,1.92,5.22,9.53
114583,558,0,1.8,5.26,9.57
114587,558,0,1.88,5.33,9.49
114591,558,0,1.8,5.02,9.69
114594,558,0,1.96,5.18,9.69
114598,558,0,1.96,5.14,9.61
114603,558,0,1.88,5.33,9.77
114607,558,0,1.92,5.33,9.81
114610,558,0,1.96,5.3,9.77
114614,558,0,2.08,5.18,9.77
114618,558,0,1.92,5.14,9.61
114622,558,0,2.04,5.26,9.81
114625,558,0,2.08,5.14,9.89
114629,558,0,2.16,5.1,9.92
114633,558,0,2.2,5.22,9.57
114637,558,0,2.28,5.1,9.69
114640,558,0,2.28,5.26,9.65
114644,558,0,2.2,5.3,9.53
114649,558,0,2.16,5.26,9.69
114653,558,0,2.2,5.14,9.85
114656,558,0,2.2,5.26,9.61
114660,558,0,2.2,5.26,9.34
114664,558,0,2.16,5.33,9.65
114668,558,0,2.12,5.06,9.73
114671,558,0,2.04,5.3,10
114675,558,0,2.04,5.3,9.57
114679,558,0,2.08,5.3,9.57
114683,558,0,1.88,5.3,9.69
114686,558,0,1.96,5.33,9.57
114691,558,0,2,5.33,9.57
114695,558,0,2,5.3,9.77
114699,558,0,2.04,5.3,9.38
114702,558,0,2.04,5.37,9.53
114706,558,0,1.96,5.33,9.61
114710,558,0,1.96,5.22,9.61
114714,558,0,1.96,5.53,9.77
114717,558,0,1.8,5.1,9.65
114721,558,0,1.77,5.22,9.69
114725,558,0,0.04,6.9,10.83
114729,558,0,0.55,5.92,8
114733,558,0,2.24,4.9,10.9
114737,558,0,1.49,5.45,9.41
114741,558,0,2.04,5.22,9.45
114745,558,0,1.84,5.26,9.77
114748,558,0,1.88,5.3,9.85
114752,558,0,2.12,5.1,9.41
114756,558,0,1.84,5.33,9.18
114760,558,0,1.88,5.18,9.69
114763,558,0,1.84,5.18,9.69
114767,558,0,1.8,5.1,9.92
114771,558,0,1.96,5.02,9.69
114776,558,0,1.88,5.18,9.53
114779,558,0,1.88,5.1,9.81
114783,558,0,1.92,5.22,9.85
114787,558,0,1.8,5.06,9.77
114791,558,0,1.88,5.14,9.73
114794,558,0,1.88,5.14,9.45
114798,558,0,1.84,5.22,9.73
114802,558,0,2.35,5.06,9.89
114806,558,0,2.2,5.06,9.61
114809,558,0,2.12,5.18,9.85
114813,558,0,2.08,5.22,9.53
114818,558,0,2.08,5.26,9.73
114822,558,0,2.04,5.18,10.04
114825,558,0,2.04,5.3,9.85
114829,558,0,2.08,5.26,9.92
114833,558,0,2.12,5.37,9.89
114837,558,0,2.12,5.14,9.89
114840,558,0,2.12,5.26,9.77
114844,558,0,2.16,5.37,9.81
114848,558,0,2.12,5.41,9.77
114852,558,0,2.12,5.41,9.89
114856,558,0,2.12,5.18,9.65
114860,558,0,2.12,5.18,9.92
114864,558,0,2,5.45,9.57
114868,558,0,2.04,5.3,9.57
114872,558,0,2,5.45,9.65
114875,558,0,1.96,5.41,9.77
114879,558,0,2.12,5.22,9.49
114883,558,0,1.96,5.41,9.65
114887,558,0,2.04,5.45,9.69
114890,558,0,2.12,5.3,9.81
114894,558,0,2.16,5.33,9.73
114898,558,0,2.04,5.37,9.81
114903,558,0,2.08,5.33,9.81
114906,558,0,1.92,5.53,9.57
114910,558,0,1.88,5.37,9.57
114914,558,0,2,5.49,9.57
114918,558,0,2,5.69,8.98
114921,558,0,2.04,5.26,10.08
114925,558,0,2,5.41,9.41
114929,558,0,2.08,5.33,9.61
114933,558,0,2.08,5.41,9.22
114936,558,0,2.24,5.41,9.61
114940,558,0,1.96,5.41,9.53
114945,558,0,2.12,5.41,9.53
114949,558,0,2,5.37,9.81
114952,558,0,1.96,5.33,9.89
114956,558,0,2.2,5.22,9.57
114960,558,0,2.04,5.57,9.53
114964,558,0,2.04,5.61,9.73
114967,558,0,1.96,5.65,9.61
114971,558,0,1.88,5.57,9.96
114975,558,0,1.8,5.61,9.73
114979,558,0,1.84,5.41,9.49
114982,558,0,1.84,5.53,9.89
114987,558,0,1.69,5.57,9.38
114991,558,0,1.69,5.65,9.38
114995,558,0,1.53,5.65,9.61
114998,558,0,1.61,5.73,9.38
115002,558,0,1.77,5.69,9.61
115006,558,0,1.57,5.61,9.81
115010,558,0,1.41,5.65,9.77
115013,558,0,1.49,5.73,9.45
115017,558,0,1.53,5.77,9.18
115021,558,0,1.57,5.65,9.3
115025,558,0,1.69,5.61,9.26
115028,558,0,1.69,5.61,9.18
115033,558,0,1.57,5.73,9.38
115037,558,0,1.53,5.65,9.45
115041,558,0,1.61,5.81,9.49
115044,558,0,1.73,5.65,9.49
115048,558,0,1.73,5.69,9.65
115052,558,0,1.8,5.88,9.41
115056,558,0,1.8,5.65,9.3
115059,558,0,1.8,5.73,9.14
115063,558,0,1.92,5.77,9.3
115067,558,0,1.92,5.69,9.26
115072,558,0,1.84,5.65,9.34
115075,558,0,1.65,5.73,9.38
115079,558,0,1.73,5.65,9.34
115083,558,0,1.88,5.45,9.41
115087,558,0,1.57,5.57,9.81
115090,558,0,1.29,5.69,9.53
115094,558,0,1.65,5.65,9.53
115098,558,0,1.57,5.69,9.45
115102,558,0,1.41,5.65,9.65
115105,558,0,1.26,5.65,9.69
115109,558,0,1.18,5.61,9.61
115113,558,0,1.14,5.53,9.77
115118,558,0,1.1,5.57,9.41
115122,558,0,1.02,5.65,9.53
115125,558,0,0.94,5.69,9.3
115129,558,0,1.02,5.61,9.57
115133,558,0,0.9,5.81,9.57
115136,558,0,1.14,5.77,9.65
115140,558,0,1.06,5.84,9.38
115144,558,0,0.86,5.65,9.26
115148,558,0,1.22,5.73,9.38
115152,558,0,1.37,5.88,8.87
115155,558,0,1.61,5.73,9.02
115160,558,0,1.61,5.84,8.94
115164,558,0,1.61,5.84,9.06
115168,558,0,1.84,5.88,9.14
115171,558,0,2.04,5.88,9.1
115175,558,0,2.31,6,9.3
115179,558,0,2.04,5.69,9.02
115182,558,0,2.43,6.32,9.34
115186,558,0,2.39,6.12,9.3
115190,558,0,2.59,6.08,9.38
115194,558,0,2.51,6.16,9.49
115198,558,0,2.47,6.08,9.41
115202,558,0,2.51,6.04,9.14
115206,558,0,2.59,6,9.61
115210,558,0,2.55,6.24,9.34
115213,558,0,2.51,6.12,9.57
115217,558,0,2.51,6.08,9.53
115221,558,0,2.51,6.04,9.22
115225,558,0,2.39,5.92,9.65
115229,558,0,2.51,5.96,9.45
115232,558,0,2.79,5.81,9.41
115236,558,0,2.75,5.77,9.45
115240,558,0,2.79,5.57,9.57
115245,558,0,2.82,5.53,9.22
115248,558,0,2.71,5.49,9.45
115252,558,0,2.75,5.65,9.3
115256,558,0,2.75,5.45,9.57
115260,558,0,2.63,5.53,9.49
115263,558,0,2.55,5.49,9.61
115267,558,0,2.39,5.33,9.85
115271,558,0,2.12,5.45,9.81
115275,558,0,2.08,5.53,9.85
115278,558,0,1.96,5.37,9.81
115282,558,0,1.92,5.57,9.57
115287,558,0,1.88,5.69,9.38
115291,558,0,1.84,5.69,9.34
115294,558,0,1.77,5.37,9.41
115298,558,0,1.92,5.33,9.65
115302,558,0,2,5.57,9.41
115306,558,0,2.2,5.61,9.38
115309,558,0,2.16,5.53,9.61
115313,558,0,2.24,5.53,9.38
115317,558,0,2.2,5.49,9.38
115321,558,0,2.2,5.61,9.18
115324,558,0,2.08,5.92,9.1
115329,558,0,2,5.81,9.18
115333,558,0,1.92,5.84,9.26
115337,558,0,1.88,5.96,9.41
115340,558,0,2.04,5.96,9.1
115344,558,0,2.12,5.88,9.22
115348,558,0,2.31,6.2,9.3
115352,558,0,2.31,5.92,9.53
115355,558,0,2.51,6.08,9.49
115359,558,0,2.71,6.16,9.57
115363,558,0,2.75,6.04,9.49
115367,558,0,2.9,6.12,9.96
115371,558,0,2.98,6.08,9.26
115375,558,0,2.9,5.96,9.3
115379,558,0,2.86,6.12,9.34
115383,558,0,2.75,6.04,9.49
115386,558,0,2.75,6.12,8.98
115390,558,0,2.75,6.08,8.87
115394,558,0,2.63,6.08,8.83
115398,558,0,2.59,5.88,8.87
115401,558,0,2.43,5.96,9.14
115405,558,0,2.43,5.73,9.1
115409,558,0,2.28,5.73,8.98
115414,558,0,2.2,5.73,9.22
115417,558,0,2.24,5.77,9.14
115421,558,0,2.28,5.84,9.18
115425,558,0,2.24,5.73,9.22
115429,558,0,2.31,5.81,9.02
115432,558,0,2.35,5.69,9.38
115436,558,0,2.43,5.61,9.49
115440,558,0,2.31,5.61,9.45
115444,558,0,2.28,5.41,9.65
115447,558,0,2.39,5.53,9.45
115451,558,0,2.31,5.3,9.65
115456,558,0,2.51,5.61,9.45
115460,558,0,2.47,5.53,9.57
115463,558,0,2.39,5.57,9.61
115467,558,0,2.39,5.33,9.34
115471,558,0,2.39,5.49,9.41
115475,558,0,2.16,5.57,9.61
115478,558,0,2.24,5.61,9.45
115482,558,0,2.28,5.81,9.14
115486,558,0,2.39,5.81,9.41
115490,558,0,2.35,5.81,9.49
115493,558,0,2.24,5.69,9.57
115497,558,0,2.31,5.57,9.45
115502,558,0,2.51,5.61,9.22
115506,558,0,2.35,5.73,9.14
115509,558,0,2.43,5.69,9.34
115513,558,0,2.47,5.69,9.45
115517,558,0,2.47,5.92,9.34
115521,558,0,2.51,5.96,9.1
115524,558,0,2.47,6.08,9.26
115528,558,0,2.31,5.84,9.38
115532,558,0,2.2,5.69,9.61
115536,558,0,1.92,5.65,9.45
115539,6221,0.29,1.88,5.57,9.34
115544,6221,0.29,1.49,5.69,9.34
115548,6221,0.29,1.57,5.77,9.26
115552,6221,0.29,1.61,5.81,9.41
115556,6221,0.29,1.45,5.84,9.57
115560,6221,0.29,1.61,5.61,9.34
115563,6221,0.29,1.49,5.73,9.73
115567,6221,0.29,1.33,5.53,9.85
115571,6221,0.29,1.33,5.81,10
115575,6221,0.29,1.37,6.12,9.34
115579,6221,0.29,1.57,6.28,9.26
115584,6221,0.29,1.53,5.92,9.49
115587,6221,0.29,1.57,5.88,9.34
115591,6221,0.29,1.57,5.45,9.45
115595,6221,0.29,1.69,5.37,9.49
115599,6221,0.29,1.8,5.33,9.45
115603,6221,0.29,2,5.77,9.22
115606,6221,0.29,1.92,5.65,9.18
115610,6221,0.29,2.16,5.77,9.45
115614,6221,0.29,2.08,5.73,9.45
115618,6221,0.29,2.39,5.77,9.73
115622,6221,0.29,2.35,5.69,10
115627,6221,0.29,2.51,5.69,10.04
115630,6221,0.29,2.47,5.96,9.69
115634,6221,0.29,2.24,6.08,9.73
115638,6221,0.29,2.12,6.2,9.38
115642,6221,0.29,2.35,6.12,8.87
115646,6221,0.29,2.51,6.16,8.9
115650,6221,0.29,2.43,6.08,8.87
115653,6221,0.29,2.28,6.47,8.51
115657,6221,0.29,2.16,5.96,8.55
115661,6221,0.29,1.92,5.84,8.75
115665,6221,0.29,1.8,5.53,8.59
115670,6221,0.29,1.84,5.45,8.9
115673,6221,0.29,1.77,5.33,9.34
115677,6221,0.29,1.69,5.45,9.49
115681,6221,0.29,1.53,5.73,9.3
115685,6221,0.29,1.65,6.16,9.61
115689,6221,0.29,1.65,6.08,9.57
115692,6221,0.29,1.88,6.39,9.85
115696,6221,0.29,2.04,6.32,10.12
115700,6221,0.29,2.16,6.43,10.24
115704,6221,0.29,2.16,6.43,10.08
115708,6221,0.29,2.16,6.2,9.69
115713,6221,0.29,2.28,5.92,9.22
115717,6221,0.29,2.12,5.96,8.67
115720,6221,0.29,2.16,5.77,8.79
115724,6221,0.29,2.12,5.77,8.75
115728,6221,0.29,2.04,5.81,8.63
115732,6221,0.29,1.84,6,8.67
115736,6221,0.29,1.8,6.75,8.83
115739,6221,0.29,1.69,6.63,8.67
115743,6221,0.29,1.65,6.55,9.02
115747,6221,0.29,1.57,6.28,9.3
115751,6221,0.29,1.49,5.92,9.73
115756,6221,0.29,1.57,5.49,9.53
115759,6221,0.29,1.33,5.57,9.69
115763,6221,0.29,1.37,5.65,9.77
115767,6221,0.29,1.53,5.61,9.38
115771,6221,0.29,1.65,5.73,9.3
115775,6221,0.29,1.65,5.73,8.98
115779,6221,0.29,1.61,5.84,9.38
115782,6221,0.29,1.37,5.88,9.61
115786,6221,0.29,1.22,6.2,9.73
115790,6221,0.29,1.37,6.24,9.96
115794,6221,0.29,1.22,6.08,9.69
115799,6221,0.29,1.33,6.16,9.34
115802,6221,0.29,1.49,6.12,8.9
115806,6221,0.29,1.49,5.88,8.9
115810,6221,0.29,1.65,6.2,8.55
115814,6221,0.29,1.65,5.77,8.87
115818,6221,0.29,1.57,5.88,8.98
115821,6221,0.29,1.73,5.84,9.38
115825,6221,0.29,1.8,5.69,9.34
115829,6221,0.29,2.04,5.65,9.45
115833,6221,0.29,2.12,5.84,8.71
115837,6221,0.29,1.84,6.04,8.94
115841,6221,0.29,1.92,5.57,9.45
115845,6221,0.29,2.04,5.53,9.61
115849,6221,0.29,1.96,5.92,9.3
115853,6221,0.29,2.08,6.2,9.92
115857,6221,0.29,1.88,6.32,10.04
115861,6221,0.29,1.88,6.28,10.08
115864,6221,0.29,1.73,6.2,9.92
115868,6221,0.29,1.8,6.12,9.45
115872,6221,0.29,1.69,5.81,9.65
115876,6221,0.29,1.69,5.53,9.22
115880,6221,0.29,1.61,5.57,9.22
115885,6221,0.29,1.69,5.84,8.55
115888,6221,0.29,1.77,5.65,8.79
115892,6221,0.29,1.73,5.73,8.83
115896,6221,0.29,1.84,5.49,9.14
115900,6221,0.29,1.84,5.57,9.49
115904,6221,0.29,1.73,5.53,9.26
115907,6221,0.29,1.53,5.57,9.38
115911,6221,0.29,1.57,5.88,9.26
115915,6221,0.29,1.37,6.2,9.45
115919,6221,0.29,1.45,5.81,9.96
115923,6221,0.29,1.37,5.49,9.81
115927,6221,0.29,1.41,5.84,10.2
115931,6221,0.29,1.37,5.49,10.12
115935,6221,0.29,1.26,5.81,9.77
115939,6221,0.29,1.1,6.2,9.45
115943,6221,0.29,1.1,6.28,8.94
115947,6221,0.29,1.02,6.04,8.98
115950,6221,0.29,0.94,6.2,8.98
115954,6221,0.29,1.14,6.28,8.75
115958,6221,0.29,1.26,6.24,8.71
115962,6221,0.29,1.22,6.47,8.24
115966,6221,0.29,1.1,6.08,8.32
115971,6221,0.29,0.98,5.45,8.51
115974,6221,0.29,0.78,5.45,8.83
115978,6221,0.29,0.82,5.26,9.22
115982,6221,0.29,0.71,5.53,8.59
115986,6221,0.29,0.63,6.59,9.34
115990,6221,0.29,0.55,6.94,9.26
115993,6221,0.29,0.55,6.79,10.24
115997,6221,0.29,0.39,6.71,9.96
116001,6221,0.29,0.31,6.08,10.28
116005,6221,0.29,0.51,5.69,10.04
116009,6221,0.29,0.43,5.61,9.73
116014,6221,0.29,0.35,5.88,9.22
116017,6221,0.29,0.31,5.84,8.75
116021,6221,0.29,0.2,5.61,8.47
116025,6221,0.29,0.35,5.77,8.55
116029,6221,0.29,0.35,5.77,8.63
116033,6221,0.29,0.43,6.2,8.47
116036,6221,0.29,0.47,5.84,9.53
116040,6221,0.29,0.31,5.53,10.43
116044,6221,0.29,0.51,5.1,10.94
116048,6221,0.29,0.63,4.98,10.9
116052,6221,0.29,0.82,4.75,11.06
116057,6221,0.29,1.1,4.67,10.36
116061,6221,0.29,1.33,6.08,9.69
116064,6221,0.29,1.45,6.59,9.1
116068,6221,0.29,1.65,6.71,8.9
116072,6221,0.29,1.77,5.1,9.81
116076,6221,0.29,1.61,4.47,9.77
116080,6221,0.29,1.53,4.35,9.81
116083,6221,0.29,1.41,4.28,10.12
116087,6221,0.29,1.45,4.16,10.51
116091,6221,0.29,1.8,4.43,10.04
116096,6221,0.29,2.28,4.75,9.77
116100,6221,0.29,2.39,4.86,9.53
116104,6221,0.29,2.35,5.1,9.41
116107,6221,0.29,2.24,5.73,9.89
116111,6221,0.29,2.39,5.77,10.16
116115,6221,0.29,2.43,5.69,10
116119,6221,0.29,2.43,6.04,9.49
116123,6221,0.29,2.12,6.79,8.79
116127,6221,0.29,1.96,6.86,8.32
116130,6221,0.29,1.69,7.18,8.83
116134,6221,0.29,1.61,6.83,8.75
116139,6221,0.29,1.29,5.84,9.18
116143,6221,0.29,1.18,5.81,9.3
116147,6221,0.29,1.22,5.77,9.3
116151,6221,0.29,1.96,6.32,9.22
116154,6221,0.29,0.86,7.3,8.79
116158,6221,0.29,1.14,6.55,8.75
116162,6221,0.29,1.06,7.02,8.67
116166,6221,0.29,0.86,6.71,9.14
116170,6221,0.29,0.94,6.35,8.9
116173,6221,0.29,0.86,6.12,9.3
116177,6221,0.29,1.14,6.71,9.06
116182,6221,0.29,0.86,7.53,8.9
116186,6221,0.29,0.98,7.65,8.55
116190,6221,0.29,1.02,6.28,9.18
116193,6221,0.29,0.86,6,9.89
116197,6221,0.29,0.9,7.1,8.75
116201,6221,0.29,1.18,6.08,8.75
116205,6221,0.29,1.22,6,9.49
116209,6221,0.29,1.22,5.14,10.2
116212,6221,0.29,1.26,5.41,9.77
116216,6221,0.29,1.53,5.06,9.65
116220,6221,0.29,1.41,5.57,8.98
116225,6221,0.29,1.61,5.69,8.87
116229,6221,0.29,1.29,6.04,8.98
116233,6221,0.29,1.45,6,9.22
116236,6221,0.29,1.37,6.08,9.34
116240,6221,0.29,1.49,5.73,9.69
116244,6221,0.29,1.45,5.22,10.12
116248,709,2.54,1.1,4.79,10.24
116252,709,2.54,0.98,4.79,9.89
116255,709,2.54,1.26,5.06,9.38
116259,709,2.54,1.57,5.92,8.87
116263,709,2.54,1.73,6.12,8.47
116268,709,2.54,1.57,6.24,8.83
116272,709,2.54,1.41,5.41,9.57
116275,709,2.54,1.26,5.26,9.85
116279,709,2.54,0.98,4.98,9.73
116283,709,2.54,1.06,5.26,9.18
116287,709,2.54,1.06,5.61,8.71
116290,709,2.54,1.22,6.67,8.71
116294,709,2.54,1.22,6.59,8.71
116298,709,2.54,1.06,6.28,9.41
116302,709,2.54,1.06,5.1,10.08
116306,709,2.54,0.98,4.94,10.83
116310,709,2.54,1.1,5.18,9.81
116314,709,2.54,1.33,6.35,9.22
116318,709,2.54,1.8,6.12,8.04
116322,709,2.54,2.04,6.24,8.47
116325,709,2.54,2.16,6.04,8.98
116329,709,2.54,2.04,6.08,9.61
116333,709,2.54,2.08,6.32,9.06
116337,709,2.54,2.08,7.49,8.87
116341,709,2.54,1.88,6.39,9.06
116344,709,2.54,1.49,6.63,9.22
116348,709,2.54,1.18,6.39,9.92
116353,709,2.54,0.86,6.12,9.69
116357,709,2.54,1.02,5.84,9.18
116360,709,2.54,0.31,5.96,9.96
116364,709,2.54,0.43,6.24,8.36
116368,709,2.54,0.27,6.2,8.47
116372,709,2.54,0.24,5.92,8.83
116376,709,2.54,0.08,5.77,9.41
116379,709,2.54,0.08,5.96,9.34
116383,709,2.54,0.2,7.22,9.02
116387,709,2.54,0.39,7.02,8.71
116391,709,2.54,0.12,6.83,8.67
116395,709,2.54,0.04,5.61,9.49
116399,709,2.54,0.12,5.61,9.34
116403,709,2.54,0.47,5.49,9.34
116407,709,2.54,0.78,5.53,9.06
116410,709,2.54,0.75,5.1,9.69
116414,709,2.54,1.22,5.22,9.49
116418,709,2.54,1.18,5.53,8.71
116422,709,2.54,1.45,6.67,7.96
116426,709,2.54,1.41,6.39,8.55
116429,709,2.54,1.49,5.57,10.12
116433,709,2.54,2.04,5.02,11.22
116438,709,2.54,2.16,5.84,10.79
116442,709,2.54,2.43,5.57,9.3
116446,709,2.54,2.31,6,8.16
116449,709,2.54,2.51,5.92,8.87
116453,709,2.54,2.79,5.26,9.38
116457,709,2.54,2.71,4.71,10.24
116461,709,2.54,2.35,5.06,9.81
116465,709,2.54,2.08,6.39,9.26
116468,709,2.54,2.16,6.63,8.75
116472,709,2.54,2.12,6.79,9.41
116476,709,2.54,2.47,5.53,9.96
116481,709,2.54,2.35,5.1,9.81
116484,709,2.54,2.16,5.14,9.26
116488,709,2.54,1.88,5.22,8.12
116492,709,2.54,1.61,5.18,7.73
116496,709,2.54,1.53,6.2,7.73
116500,709,2.54,1.65,5.14,8.47
116503,709,2.54,1.61,4.86,9.18
116507,709,2.54,1.06,5.02,9.96
116511,709,2.54,1.02,5.06,9.73
116515,709,2.54,0.55,5.3,10.55
116518,709,2.54,0.16,5.61,11.49
116523,709,2.54,0.2,6.32,11.41
116527,709,2.54,0.24,6.35,11.57
116531,709,2.54,0.47,6.24,11.34
116535,709,2.54,0.51,6.2,8.98
116539,709,2.54,0.16,6.51,8.59
116542,709,2.54,0.55,5.37,8.51
116546,709,2.54,0.2,4.67,10.16
116550,709,2.54,-0.16,4.28,10.83
116554,709,2.54,-0.71,4.35,11.22
116558,709,2.54,-1.06,4.28,11.02
116561,709,2.54,-0.59,5.84,10.4
116566,709,2.54,-0.35,6.39,9.61
116570,709,2.54,0.51,6.71,9.61
116574,709,2.54,0.51,6.28,9.73
116578,709,2.54,0.71,6.63,8.79
116581,709,2.54,0.55,6.43,8.32
116585,709,2.54,0.71,6.47,7.57
116589,709,2.54,1.18,6.43,7.1
116593,709,2.54,1.14,5.45,8.43
116596,709,2.54,1.14,5.22,9.34
116600,709,2.54,1.02,5.18,9.26
116604,709,2.54,0.86,5.65,10.2
116609,709,2.54,0.75,6.39,9.57
116613,709,2.54,0.59,6.67,8.87
116616,709,2.54,1.02,7.06,9.1
116620,709,2.54,0.9,7.14,8.87
116624,709,2.54,1.33,6.28,9.65
116628,709,2.54,1.02,5.81,9.81
116631,709,2.54,1.1,5.14,9.38
116635,709,2.54,0.9,5.26,8.51
116639,709,2.54,0.9,6.08,7.3
116643,709,2.54,0.98,6.16,6.71
116647,709,2.54,0.75,5.1,7.41
116651,709,2.54,0.71,3.69,9.69
116655,709,2.54,0.78,5.1,11.41
116659,709,2.54,1.18,4.82,12.16
116663,709,2.54,0.12,5.49,12.04
116667,709,2.54,0.55,6.16,10.28
116670,709,2.54,0.35,6.51,9.57
116674,709,2.54,0.59,5.1,11.34
116678,709,2.54,0.75,4.04,12.83
116682,709,2.54,0.55,3.65,12.4
116686,709,2.54,0.86,4.2,11.14
116689,709,2.54,0.24,4.67,9.49
116694,709,2.54,0.12,4.94,10.71
116698,709,2.54,0.71,5.26,10.71
116702,454,3.96,1.45,5.84,10.63
116706,454,3.96,1.14,6.35,10.2
116710,454,3.96,-0.39,5.88,8.79
116713,454,3.96,-0.94,5.33,8.16
116717,454,3.96,-2.12,4.31,8.75
116721,454,3.96,-1.45,4.86,9.45
116725,454,3.96,0.67,4.39,10.16
116728,454,3.96,1.41,4.39,9.61
116732,454,3.96,2.16,3.88,10.04
116737,454,3.96,0.39,3.84,10.4
116741,454,3.96,0.71,3.77,10.4
116745,454,3.96,0.86,3.92,10.16
116749,454,3.96,1.18,5.22,9.96
116752,454,3.96,1.88,6.43,9.53
116756,454,3.96,2.31,6.98,9.53
116760,454,3.96,1.92,5.45,10.83
116764,454,3.96,1.84,4.75,10.71
116768,454,3.96,2.2,4.35,9.81
116771,454,3.96,2.43,4.55,9.26
116775,454,3.96,2.24,4.86,9.1
116780,454,3.96,2.43,4.79,8.98
116784,454,3.96,2,4.86,8.51
116787,454,3.96,2.2,5.33,8.36
116791,454,3.96,1.96,6.08,8.2
116795,454,3.96,1.88,6.67,8.12
116799,454,3.96,1.61,6.35,9.14
116803,454,3.96,1.65,6.55,9.41
116806,454,3.96,1.8,5.81,9.26
116810,454,3.96,1.61,5.37,10.12
116814,454,3.96,1.61,5.92,9.3
116818,454,3.96,1.57,5.57,10.08
116823,454,3.96,1.26,5.45,10.51
116826,454,3.96,1.77,6.43,9.69
116830,454,3.96,2,7.3,9.22
116834,454,3.96,1.69,6.67,8.94
116838,454,3.96,1.73,5.49,9.1
116841,454,3.96,1.18,4.82,8.63
116845,454,3.96,1.06,4.79,8.63
116849,454,3.96,0.12,4.63,9.22
116853,454,3.96,0.59,4.94,9.3
116857,454,3.96,0.63,5.88,9.18
116860,454,3.96,1.06,5.53,9.77
116865,454,3.96,0.27,5.41,10.08
116869,454,3.96,0,6,9.92
116873,454,3.96,-0.63,6.08,10.43
116876,454,3.96,-0.31,5.18,10.4
116880,454,3.96,-0.47,6.16,7.61
116884,454,3.96,1.14,6.79,8.63
116888,454,3.96,2.31,5.77,6.55
116892,454,3.96,-1.57,5.1,8.08
116895,454,3.96,-0.59,4.31,7.45
116899,454,3.96,-0.86,2.75,8.59
116903,454,3.96,0.27,4.24,8.71
116908,454,3.96,0.63,5.33,8.43
116911,454,3.96,0.78,5.14,10.12
116915,454,3.96,0.86,4.2,12.75
116919,454,3.96,0,3.77,14.83
116923,454,3.96,0.59,2.55,13.96
116927,454,3.96,0.39,2.16,12.71
116931,454,3.96,1.06,2.08,10.83
116934,454,3.96,1.06,2.39,8.59
116938,454,3.96,0.75,2.82,10.67
116942,454,3.96,1.02,4.04,8.67
116946,454,3.96,0.63,5.06,9.49
116950,454,3.96,0.47,7.06,9.89
116954,454,3.96,1.45,7.61,10.98
116958,454,3.96,2.47,6.98,11.18
116962,454,3.96,3.45,7.06,9.96
116966,454,3.96,3.26,7.02,9.3
116969,454,3.96,2.79,6.08,10
116973,454,3.96,2.39,5.65,10.04
116977,454,3.96,2.75,5.65,8.79
116981,454,3.96,3.69,6.16,8.43
116985,454,3.96,3.8,6.04,9.57
116988,454,3.96,3.37,5.3,10.4
116993,454,3.96,2.55,5.14,10.12
116997,454,3.96,1.8,6.28,10.2
117001,454,3.96,1.37,6.08,8.98
117005,454,3.96,0.94,7.53,9.1
117008,454,3.96,0.31,6.04,10.59
117012,454,3.96,0.47,5.45,10.08
117016,454,3.96,0.82,4.94,10.12
117020,454,3.96,0.82,4.43,9.69
117024,454,3.96,1.14,5.14,9.22
117027,454,3.96,1.41,4.75,10.2
117031,454,3.96,1.22,4.2,10.4
117036,454,3.96,1.22,3.65,12.16
117040,454,3.96,0.86,4.79,11.06
117044,454,3.96,1.69,6.79,9.92
117047,454,3.96,1.49,6.51,9.41
117051,454,3.96,1.49,5.37,9.34
117055,454,3.96,0.86,4.43,9.3
117059,454,3.96,0.63,3.88,8.98
117063,454,3.96,1.53,4.2,8.43
117066,454,3.96,1.45,5.33,7.73
117070,454,3.96,1.8,5.26,8.67
117074,454,3.96,1.1,4.63,9.49
117079,454,3.96,1.41,4.71,9.34
117082,454,3.96,1.69,4.9,10.79
117086,454,3.96,1.96,5.18,10.9
117090,388,4.64,2.63,5.84,10.47
117094,388,4.64,1.45,6.71,9.49
117098,388,4.64,2.35,6.04,8.71
117102,388,4.64,1.57,5.33,8.98
117105,388,4.64,2.08,5.49,9.06
117109,388,4.64,1.92,5.18,8.94
117113,388,4.64,1.84,5.14,9.89
117117,388,4.64,2.08,5.18,9.45
117121,388,4.64,1.77,5.45,8.87
117125,388,4.64,1.96,4.82,8.32
117129,388,4.64,1.73,4.9,9.22
117133,388,4.64,1.77,5.33,9.77
117137,388,4.64,2.08,5.41,10.28
117140,388,4.64,2.31,4.9,10.47
117144,388,4.64,2.2,4.59,11.06
117148,388,4.64,2.35,5.14,9.96
117152,388,4.64,2.71,5.65,8.75
117156,388,4.64,2.67,4.71,9.22
117159,388,4.64,2.35,4.51,9.85
117164,388,4.64,2.12,3.84,10.24
117168,388,4.64,2.12,4.16,10.2
117172,388,4.64,2.08,4.63,9.89
117176,388,4.64,2.47,5.88,9.53
117179,388,4.64,2.35,6.12,8.79
117183,388,4.64,2.04,6,9.06
117187,388,4.64,1.69,5.37,9.92
117191,388,4.64,1.53,4.98,10.47
117194,388,4.64,1.57,4.47,10.63
117198,388,4.64,1.41,4,10.51
117202,388,4.64,1.61,4.63,10.32
117207,388,4.64,1.8,5.53,9.02
117211,388,4.64,1.92,6.12,9.53
117214,388,4.64,1.53,6.47,9.92
117218,388,4.64,1.53,6.67,9.77
117222,388,4.64,1.06,5.22,9.26
117226,388,4.64,1.29,4.59,8.59
117230,388,4.64,1.26,4.08,8.9
117233,388,4.64,1.37,3.92,10.98
117237,388,4.64,1.49,4.51,11.26
117241,388,4.64,1.96,6.32,10.12
117245,388,4.64,1.73,6.28,9.53
117250,388,4.64,1.84,7.02,10.04
117253,388,4.64,1.53,5.96,9.65
117257,388,4.64,1.73,5.37,9.85
117261,388,4.64,1.77,5.3,9.26
117265,388,4.64,1.73,5.41,9.14
117269,388,4.64,1.53,4.98,9.77
117272,388,4.64,1.69,5.06,8.67
117276,388,4.64,1.77,6.67,7.57
117280,388,4.64,1.8,6.2,8.71
117284,388,4.64,1.53,5.77,9.41
117287,388,4.64,1.92,5.65,8.98
117292,388,4.64,1.69,5.65,9.22
117296,388,4.64,2.08,6.12,8.2
117300,388,4.64,2.04,6.16,7.77
117304,388,4.64,2.08,5.88,9.22
117307,388,4.64,2.28,4.98,10.36
117311,388,4.64,2.08,4.98,11.3
117315,388,4.64,2.24,5.06,10.55
117319,388,4.64,2.16,5.61,10.16
117323,388,4.64,2.51,5.84,9.22
117326,388,4.64,2.2,5.18,8.83
117330,388,4.64,2,4.86,9.02
117335,388,4.64,2.08,5.22,9.34
117339,388,4.64,2.31,5.02,10.24
117343,388,4.64,2.43,5.53,10.63
117346,388,4.64,2.47,5.22,11.06
117350,388,4.64,2.31,4.94,11.3
117354,388,4.64,2.35,5.18,10.9
117358,388,4.64,2.08,5.45,9.61
117362,388,4.64,2.39,6.83,8
117365,388,4.64,2.51,7.61,7.22
117369,388,4.64,2.04,7.02,7.61
117373,388,4.64,1.69,5.37,8.75
117378,388,4.64,1.8,4.94,9.34
117381,388,4.64,2.16,5.69,9.3
117385,388,4.64,2.12,5.81,8.98
117389,388,4.64,1.92,5.81,8.71
117393,388,4.64,1.53,5.33,9.34
117397,388,4.64,1.88,4.67,10.12
117400,388,4.64,2.12,3.77,10.32
117404,388,4.64,2.75,5.57,10.71
117408,388,4.64,3.1,5.45,10.32
117412,388,4.64,2.79,6.2,9.73
117416,388,4.64,2.35,5.81,9.06
117420,388,4.64,1.73,4.94,9.53
117424,388,4.64,1.84,4.43,10.24
117428,388,4.64,2.28,4.59,9.73
117432,388,4.64,2.43,5.3,9.22
117436,388,4.64,2.31,4.75,10.08
117439,388,4.64,2.08,5.73,9.69
117443,388,4.64,1.84,6.08,9.73
117447,388,4.64,2.12,5.73,9.53
117451,388,4.64,2.12,5.96,9.61
117455,388,4.64,2.39,6.39,9.57
117458,388,4.64,2.16,5.77,9.85
117463,388,4.64,2.12,5.57,9.41
117467,388,4.64,2.28,5.45,8.94
117471,388,4.64,1.92,5.73,8.75
117474,388,4.64,2.12,5.41,8.67
117478,388,4.64,2.28,4.28,10.08
117482,388,4.64,2.67,3.96,10.75
117486,388,4.64,2.51,3.96,10.16
117490,388,4.64,2.39,5.14,9.85
117494,388,4.64,2.12,6.35,9.02
117497,388,4.64,2.39,7.26,8.55
117501,388,4.64,2.43,6.43,7.92
117506,388,4.64,2.24,5.84,9.06
117510,420,4.29,2.75,5.41,9.89
117513,420,4.29,2.51,4.59,10.94
117517,420,4.29,2.63,3.65,11.1
117521,420,4.29,2.51,4.67,10
117525,420,4.29,2.47,5.14,9.22
117529,420,4.29,2.47,5.65,8.87
117532,420,4.29,2.59,6.59,8.75
117536,420,4.29,2.16,6.28,8.67
117540,420,4.29,2.47,5.92,9.02
117544,420,4.29,2.28,4.86,9.81
117549,420,4.29,2.24,5.22,10.28
117552,420,4.29,2.16,5.57,10.12
117556,420,4.29,2.16,5.06,10.71
117560,420,4.29,1.8,5.88,10.16
117564,420,4.29,2.51,5.61,9.89
117568,420,4.29,2.59,6,9.26
117571,420,4.29,2.63,5.45,9.34
117575,420,4.29,2.51,4.67,9.89
117579,420,4.29,2.51,5.3,9.73
117583,420,4.29,2.43,4.98,9.73
117587,420,4.29,2.31,6,9.45
117591,420,4.29,2.98,6.24,9.1
117595,420,4.29,2.59,5.65,9.92
117599,420,4.29,2.51,5.45,10.51
117603,420,4.29,1.96,4.98,9.53
117607,420,4.29,2.43,5.73,8.12
117610,420,4.29,2.31,6.67,8
117614,420,4.29,2.35,6.55,9.26
117618,420,4.29,1.88,6.32,9.69
117622,420,4.29,1.65,5.49,10.28
117625,420,4.29,2.16,5.33,9.96
117629,420,4.29,2.12,6.63,9.38
117634,420,4.29,2.04,7.22,9.41
117638,420,4.29,1.96,6.47,9.26
117642,420,4.29,1.8,5.73,8.87
117645,420,4.29,2.04,5.33,8.71
117649,420,4.29,1.96,4.35,9.1
117653,420,4.29,2.63,5.77,9.65
117657,420,4.29,2.75,5.14,10.16
117661,420,4.29,2.71,6.04,9.38
117664,420,4.29,2.28,6.04,9.57
117668,420,4.29,2.35,5.41,9.45
117672,420,4.29,2.31,5.41,9.3
117677,420,4.29,2.82,5.33,8.59
117680,420,4.29,2.63,5.73,8.16
117684,420,4.29,2.86,4.9,7.96
117688,420,4.29,2.35,5.3,9.3
117692,420,4.29,1.73,5.22,9.3
117696,420,4.29,1.69,5.33,9.77
117699,420,4.29,0.98,4.55,9.81
117703,420,4.29,1.41,4.63,9.61
117707,420,4.29,0.78,5.53,8.9
117711,420,4.29,1.18,6.08,8.9
117714,420,4.29,1.14,5.88,9.41
117719,420,4.29,0.78,7.22,9.92
117723,420,4.29,0.75,5.96,9.81
117727,420,4.29,0.51,6.04,10.28
117731,420,4.29,1.02,5.06,9.85
117734,420,4.29,1.02,5.45,9.34
117738,420,4.29,1.73,5.37,8.63
117742,420,4.29,1.96,5.3,9.02
117746,420,4.29,1.96,5.1,9.96
117749,420,4.29,2.47,4.82,10.16
117753,420,4.29,2.82,4.47,9.96
117757,420,4.29,3.22,5.92,10.24
117762,420,4.29,3.65,5.57,10.4
117766,420,4.29,3.61,5.49,10.32
117770,420,4.29,3.57,5.53,9.89
117773,420,4.29,3.69,5.53,9.06
117777,420,4.29,3.41,5.45,9.38
117781,420,4.29,3.06,6.71,9.65
117785,420,4.29,3.3,5.61,10.28
117789,420,4.29,2.63,6.39,10.47
117792,420,4.29,2.79,5.37,9.34
117796,420,4.29,2.31,5.41,8.83
117800,420,4.29,2,5.84,9.53
117805,420,4.29,1.73,5.84,9.34
117808,420,4.29,1.37,6.28,8.79
117812,420,4.29,1.06,5.77,8.36
117816,420,4.29,1.41,6.12,7.18
117820,420,4.29,1.8,6.35,8.47
117824,420,4.29,1.77,5.22,10.71
117827,420,4.29,1.92,5.45,11.45
117831,420,4.29,1.1,5.77,10.51
117835,420,4.29,1.77,5.33,9.18
117839,329,5.47,1.41,5.06,8.83
117843,329,5.47,1.92,5.06,7.69
117847,329,5.47,1.84,6.16,9.22
117851,329,5.47,2,5.33,8.16
117855,329,5.47,1.84,5.57,8.71
117859,329,5.47,1.96,5.06,8.94
117863,329,5.47,1.37,5.1,9.41
117866,329,5.47,1.37,5.61,10.59
117870,329,5.47,0.43,5.84,9.14
117874,329,5.47,0.43,7.37,8.16
117878,329,5.47,0.08,7.45,7.45
117881,329,5.47,0.27,8.71,7.06
117885,329,5.47,0.59,6.47,8.94
117890,329,5.47,0.82,6.08,10.55
117894,329,5.47,0.55,5.61,10.36
117898,329,5.47,0.04,5.02,10.9
117901,329,5.47,0.27,3.92,10.16
117905,329,5.47,0.04,5.3,9.69
117909,329,5.47,0,5.61,9.34
117913,329,5.47,0.08,6.08,7.73
117916,329,5.47,0.08,7.34,8.79
117920,329,5.47,0.47,6.04,9.77
117924,329,5.47,0.67,6.16,10.36
117928,329,5.47,0.24,5.88,10.32
117933,329,5.47,0.2,6.59,9.81
117936,329,5.47,0.08,6.32,9.49
117940,329,5.47,-0.16,6,8.59
117944,329,5.47,-0.47,5.81,8.36
117948,329,5.47,-0.2,5.53,8.47
117952,329,5.47,-0.31,4.16,10.04
117955,329,5.47,-0.24,4.71,9.92
117959,329,5.47,-0.98,5.45,8.55
117963,329,5.47,-1.18,5.53,8.59
117967,329,5.47,-1.29,6.55,7.69
117970,329,5.47,-1.57,6.9,9.06
117975,329,5.47,-1.26,5.84,9.77
117979,329,5.47,-0.94,5.1,11.69
117983,329,5.47,-0.86,5.81,10.9
117987,329,5.47,-0.67,4.59,10.12
117991,329,5.47,-0.94,5.22,9.1
117994,329,5.47,-1.45,5.61,8.47
117998,329,5.47,-1.73,6.75,7.3
118002,329,5.47,-1.53,4.9,8.28
118006,329,5.47,-0.78,5.18,9.61
118009,329,5.47,-0.35,5.02,10.16
118013,329,5.47,0.12,6.55,10.28
118018,329,5.47,0.27,4.59,10.24
118022,329,5.47,0.39,3.73,9.02
118026,329,5.47,0.43,4.75,8.94
118029,329,5.47,0.39,3.96,9.81
118033,329,5.47,0.51,5.37,9.41
118037,329,5.47,0.51,6.43,7.88
118041,329,5.47,-0.43,5.14,9.61
118045,329,5.47,-0.16,5.06,9.18
118048,329,5.47,-0.94,6.32,9.53
118052,329,5.47,-0.94,6.12,9.49
118056,329,5.47,-0.98,6.39,10
118061,329,5.47,-1.06,6.28,10.08
118065,329,5.47,0.12,6.35,10.75
118068,329,5.47,0.16,4.82,10.2
118072,329,5.47,0.59,6.28,9.45
118076,329,5.47,-0.82,6.08,8.75
118080,329,5.47,-0.63,4.94,8.67
118083,329,5.47,-0.59,4.28,9.77
118087,329,5.47,-0.16,5.18,9.49
118091,329,5.47,-0.16,4.28,9.69
118095,329,5.47,-0.2,6.35,8.79
118099,329,5.47,-0.08,5.96,8
118103,329,5.47,-0.24,6.83,7.88
118107,329,5.47,-0.08,7.3,7.96
118111,329,5.47,0.82,5.53,10.9
118115,329,5.47,1.29,5.02,10.24
118118,329,5.47,1.06,5.84,9.14
118122,329,5.47,-0.12,4.75,8.79
118126,329,5.47,0.47,6.86,8.08
118130,329,5.47,-0.24,6.59,9.22
118134,329,5.47,0.24,6.94,9.22
118137,329,5.47,0.35,6.43,8.67
118141,329,5.47,0.31,6.51,8.51
118146,329,5.47,0.86,5.26,9.96
118150,329,5.47,1.22,5.02,10.04
118153,329,5.47,1.22,5.06,9.73
118157,329,5.47,0.98,6.04,9.73
118161,322,5.59,0.55,6.08,8.75
118165,322,5.59,0.51,5.88,9.73
118169,322,5.59,1.22,5.26,9.92
118172,322,5.59,0.86,4.55,9.61
118176,322,5.59,1.14,5.3,9.3
118180,322,5.59,0.71,6.32,9.61
118184,322,5.59,0.94,5.26,8.83
118188,322,5.59,1.02,6.79,8.9
118192,322,5.59,0.67,5.57,9.57
118196,322,5.59,1.37,6.51,9.77
118200,322,5.59,1.06,4.94,10.63
118204,322,5.59,1.73,5.88,9.96
118207,322,5.59,0.71,5.92,7.77
118211,322,5.59,0.98,5.92,8.04
118215,322,5.59,0.47,5.61,8.36
118219,322,5.59,0.24,4.98,8.43
118222,322,5.59,0.75,4.71,8.75
118226,322,5.59,0.71,4.59,9.77
118231,322,5.59,1.41,5.22,9.77
118235,322,5.59,1.14,5.77,8.71
118239,322,5.59,1.41,5.73,9.14
118242,322,5.59,1.41,5.96,8.28
118246,322,5.59,1.33,6.94,9.69
118250,322,5.59,1.77,5.26,10.08
118254,322,5.59,1.8,6.28,10.9
118258,322,5.59,2.39,6,10.71
118261,322,5.59,1.92,6.04,9.77
118265,322,5.59,2,5.96,9.34
118269,322,5.59,1.53,5.61,8.63
118274,322,5.59,1.73,6.12,9.45
118277,322,5.59,1.65,5.45,9.92
118281,322,5.59,1.57,6,10.28
118285,322,5.59,1.61,5.45,10.2
118289,322,5.59,1.49,5.84,9.14
118293,322,5.59,1.26,6.79,8.51
118296,322,5.59,0.75,5.69,9.38
118300,322,5.59,0.82,5.14,9.38
118304,322,5.59,0.86,5.14,9.69
118308,322,5.59,0.63,6.55,8.83
118312,322,5.59,0.75,6.12,9.18
118316,322,5.59,0.86,5.81,9.06
118320,322,5.59,1.18,5.18,8.83
118324,322,5.59,1.26,5.22,10.16
118328,322,5.59,1.26,4.24,11.34
118332,322,5.59,1.33,4.16,12.28
118335,322,5.59,1.02,4.55,10.32
118339,322,5.59,1.14,5.1,9.89
118343,322,5.59,0.94,4.86,9.22
118347,322,5.59,0.98,4.28,9.38
118350,322,5.59,0.9,6.08,9.3
118354,322,5.59,0.59,5.88,9.92
118359,322,5.59,0.16,5.88,10.24
118363,322,5.59,0,4.24,11.73
118367,322,5.59,-0.39,5.3,9.65
118370,322,5.59,0,6.86,9.02
118374,322,5.59,0.08,6.43,9.22
118378,322,5.59,0.78,6.2,10.24
118382,322,5.59,0.12,6.71,9.69
118385,322,5.59,0.12,5.88,8.9
118389,322,5.59,0.04,5.06,8.98
118393,322,5.59,0.55,4.51,8.98
118397,322,5.59,1.29,5.88,9.38
118402,322,5.59,1.22,6.63,9.26
118405,322,5.59,2.31,6.04,11.34
118409,322,5.59,1.22,5.73,10.59
118413,322,5.59,2,4.12,10.51
118417,322,5.59,1.02,5.22,9.53
118421,322,5.59,1.57,5.88,7.22
118424,322,5.59,0.9,5.96,5.73
118428,322,5.59,0.63,6.75,6.12
118432,271,6.64,0.9,6.59,8.04
118436,271,6.64,0.55,5.49,10.24
118439,271,6.64,0.71,4.98,12.47
118444,271,6.64,0.08,4.75,12.24
118448,271,6.64,0.16,4.67,11.06
118452,271,6.64,0.35,5.37,7.88
118456,271,6.64,0.16,5.88,7.96
118459,271,6.64,0.39,6.67,8.87
118463,271,6.64,0.47,4.82,13.53
118467,271,6.64,1.41,4.12,13.38
118471,271,6.64,0.75,4.08,12.75
118475,271,6.64,0.27,3.88,10.94
118479,271,6.64,0.2,4.9,9.3
118482,271,6.64,0.51,5.73,7.65
118487,271,6.64,0.27,6.94,7.06
118491,271,6.64,0.27,6.12,8.59
118495,271,6.64,0,5.26,8.98
118498,271,6.64,0.04,4.16,9.41
118502,271,6.64,-0.47,4.43,9.26
118506,271,6.64,-0.39,4.51,8.47
118510,271,6.64,-0.43,4.39,8.24
118513,271,6.64,-0.24,4.94,9.02
118517,271,6.64,-0.12,4.94,8.55
118521,271,6.64,-0.24,5.1,9.3
118525,271,6.64,-0.75,6.63,9.92
118530,271,6.64,-1.06,6.55,9.02
118533,271,6.64,-0.51,6.39,9.06
118537,271,6.64,-0.71,6,9.73
118541,271,6.64,-0.43,4.31,10.24
118545,271,6.64,-0.71,4.86,11.61
118549,271,6.64,0.04,4.79,10.04
118552,271,6.64,-0.08,4.9,9.77
118556,271,6.64,-0.43,6.08,8.75
118560,271,6.64,-0.2,5.22,9.65
118564,271,6.64,0.47,6.16,9.81
118567,271,6.64,0.63,5.41,9.53
118572,271,6.64,0.59,5.84,10.2
118576,271,6.64,1.06,4.55,9.1
118580,271,6.64,0.47,5.33,9.73
118584,271,6.64,1.14,4.94,10.4
118587,271,6.64,1.45,4.98,10.32
118591,271,6.64,1.37,5.49,9.69
118595,271,6.64,1.37,4.98,9.61
118599,271,6.64,0.2,5.33,9.53
118603,271,6.64,0.16,5.14,10.12
118606,271,6.64,-0.63,5.26,9.18
118610,271,6.64,0,5.96,10.08
118615,271,6.64,-0.16,6.08,9.38
118619,271,6.64,-0.31,5.45,8.59
118622,271,6.64,-0.51,4.94,8.63
118626,271,6.64,-0.82,5.33,8.67
118630,271,6.64,-0.71,4.9,8.04
118634,271,6.64,-0.71,4.86,8.16
118638,271,6.64,-0.27,4.31,8.67
118641,271,6.64,-0.31,5.02,9.22
118645,271,6.64,-0.27,4.94,8.83
118649,271,6.64,-0.16,5.26,8.16
118653,271,6.64,-0.16,5.41,8.43
118658,271,6.64,0.12,4.43,9.73
118661,271,6.64,-0.43,4.94,9.61
118665,271,6.64,0.43,5.57,10.08
118669,271,6.64,0.35,5.1,10.04
118673,271,6.64,0.43,4.98,10.87
118677,271,6.64,0.71,4.67,10.04
118680,271,6.64,0.86,3.92,10.83
118684,271,6.64,0.94,4.43,11.18
118688,271,6.64,0.98,4.43,10.2
118692,271,6.64,0.82,5.41,9.85
118696,271,6.64,1.29,6,9.22
118700,271,6.64,0.59,5.02,9.14
118704,271,6.64,0.59,4.86,10.94
118708,271,6.64,0.35,4.2,11.14
118712,271,6.64,0.75,4.24,11.77
118716,271,6.64,1.1,4.16,10.51
118719,287,6.27,0.86,4.47,9.96
118723,287,6.27,0.94,5.37,8.79
118727,287,6.27,1.69,4.31,8.55
118731,287,6.27,1.41,5.33,9.14
118734,287,6.27,1.96,5.06,9.49
118738,287,6.27,1.57,4.59,9.96
118743,287,6.27,2.47,4.16,11.38
118747,287,6.27,1.88,3.57,10.12
118751,287,6.27,1.29,6.86,8.43
118754,287,6.27,1.53,7.49,7.02
118758,287,6.27,0.98,7.34,9.81
118762,287,6.27,1.77,5.69,11.38
118766,287,6.27,1.53,4.94,11.45
118770,287,6.27,1.92,4.75,11.22
118774,287,6.27,1.92,5.57,9.3
118777,287,6.27,1.53,6.51,8.36
118781,287,6.27,2.04,7.3,8.63
118786,287,6.27,2.24,6,8.2
118790,287,6.27,2,5.33,9.65
118793,287,6.27,1.69,5.57,10.12
118797,287,6.27,1.53,5.22,10.51
118801,287,6.27,0.71,4.63,10.43
118805,287,6.27,1.18,4.79,10.04
118809,287,6.27,0.59,4.47,10.16
118813,287,6.27,1.1,5.14,10.51
118816,287,6.27,0.55,4.94,11.34
118820,287,6.27,0.55,6.75,11.14
118824,287,6.27,0.71,5.45,10.9
118829,287,6.27,0.59,5.81,9.69
118833,287,6.27,0.59,4.63,10.32
118836,287,6.27,0.24,4.67,10.2
118840,287,6.27,0.31,3.73,8.67
118844,287,6.27,0.12,6.28,8.94
118848,287,6.27,-0.16,5.69,8.98
118852,287,6.27,-0.04,5.1,9.92
118855,287,6.27,0.04,5.1,9.69
118859,287,6.27,-0.04,4.31,9.73
118863,287,6.27,0,5.02,8.12
118867,287,6.27,-0.24,5.77,8.87
118871,287,6.27,-0.31,6.28,10.12
118875,287,6.27,-0.31,5.84,10.04
118879,287,6.27,-0.12,4.47,10
118883,287,6.27,-0.16,4.04,8.71
118887,287,6.27,0.12,5.45,7.92
118890,287,6.27,0.71,6.08,8.47
118894,287,6.27,1.02,6.55,8.39
118898,287,6.27,1.22,5.73,9.69
118902,287,6.27,0.9,4.59,9.26
118906,287,6.27,1.14,4.39,9.65
118909,287,6.27,1.33,4.12,10.4
118914,287,6.27,0.98,5.73,10.2
118918,287,6.27,1.69,5.45,9.96
118922,287,6.27,1.61,5.53,9.85
118925,287,6.27,1.57,5.1,10.24
118929,287,6.27,1.45,6,9.18
118933,287,6.27,1.37,6.12,9.45
118937,287,6.27,1.92,6.12,10.4
118941,287,6.27,1.49,4.59,11.26
118945,287,6.27,1.53,5.37,10.2
118948,287,6.27,1.53,4.9,9.02
118952,233,7.73,1.41,4.59,8.71
118957,233,7.73,1.45,5.26,9.85
118961,233,7.73,1.84,4.24,10.98
118965,233,7.73,1.73,4.16,11.22
118968,233,7.73,1.69,5.69,10.79
118972,233,7.73,1.73,5.53,9.49
118976,233,7.73,0.71,5.26,8.63
118980,233,7.73,3.88,6.47,10.2
118984,233,7.73,-4.12,4.16,12.43
118987,233,7.73,8.59,6.32,11.85
118991,233,7.73,1.14,7.26,10.59
118995,233,7.73,-0.67,7.3,10.04
119000,233,7.73,-0.75,5.92,10
119004,233,7.73,1.18,6.59,8.36
119008,233,7.73,0.78,6.67,6.59
119011,233,7.73,-0.98,5.96,5.77
119015,233,7.73,-0.04,5.02,7.34
119019,233,7.73,0.75,4.82,11.85
119023,233,7.73,0.59,3.45,13.18
119027,233,7.73,-0.2,5.33,11.57
119030,233,7.73,0.43,6.75,10
119034,233,7.73,1.06,7.37,7.41
119038,233,7.73,0.67,5.81,8.83
119043,233,7.73,0.78,5.06,13.18
119047,233,7.73,-0.12,3.06,14.79
119050,233,7.73,0.31,4.59,13.1
119054,233,7.73,0.16,4.75,10.83
119058,233,7.73,0.78,6.79,8.16
119062,233,7.73,0.98,6.08,8.12
119066,233,7.73,1.92,6.08,9.49
119069,233,7.73,1.96,4.24,10.47
119073,233,7.73,0.9,4.59,11.57
119077,233,7.73,0.82,6.08,9.61
119081,233,7.73,0.55,6.59,9.89
119086,233,7.73,0.75,6.04,8.83
119089,233,7.73,0.98,5.88,7.61
119093,233,7.73,0.71,4.79,9.85
119097,233,7.73,0.55,3.88,11.06
119101,233,7.73,0,3.96,11.18
119104,233,7.73,0.12,4.63,10.63
119108,233,7.73,0.12,5.02,8.94
119112,233,7.73,0.39,6,8.47
119116,233,7.73,0.55,6.24,7.73
119120,233,7.73,1.02,7.49,7.85
119123,233,7.73,1.1,5.77,11.34
119128,233,7.73,0.67,5.06,13.73
119132,233,7.73,0.59,4.43,12.04
119136,233,7.73,0.71,6.24,9.85
119140,233,7.73,0.78,6.47,6.83
119143,233,7.73,1.02,6.32,5.57
119147,233,7.73,0.94,6,6.55
119151,233,7.73,1.1,3.57,10.47
119155,233,7.73,0.55,4.12,10.98
119159,233,7.73,0.31,4.75,9.02
119162,233,7.73,0,5.45,6.79
119166,233,7.73,0.12,7.65,7.65
119171,233,7.73,0.63,5.65,10.32
119175,233,7.73,0.75,5.22,10.28
119179,233,7.73,0.51,5.81,9.14
119182,233,7.73,0.31,6.55,9.57
119186,233,7.73,0.47,5.37,9.02
119190,233,7.73,0.78,5.26,9.89
119194,233,7.73,1.22,5.14,9.92
119197,233,7.73,1.33,4.82,8.79
119201,233,7.73,1.22,4.71,9.22
119205,233,7.73,1.45,5.14,9.38
119209,257,7,1.14,5.77,8.04
119214,257,7,0.9,4.86,8.83
119217,257,7,0.71,6.98,8.47
119221,257,7,0.86,6.71,9.57
119225,257,7,1.06,5.49,11.18
119229,257,7,1.02,3.88,11.96
119232,257,7,1.14,5.1,12.12
119236,257,7,0.67,5.18,10.83
119240,257,7,0.82,6.04,8.67
119244,257,7,0.31,6.12,8.47
119248,257,7,0.16,4.04,10.2
119251,257,7,0.98,5.02,10.59
119256,257,7,0.59,4.67,9.65
119260,257,7,0.55,5.77,9.38
119264,257,7,0.04,5.53,9.3
119267,257,7,0,6.04,7.65
119271,257,7,0.08,5.69,8.24
119275,257,7,0.31,5.33,9.53
119279,257,7,0.67,5.88,8.24
119282,257,7,0.31,6.16,6.63
119286,257,7,0.04,5.84,6.2
119290,257,7,0.47,5.3,7.26
119294,257,7,-0.04,4.75,9.89
119299,257,7,0.59,4.67,9.89
119302,257,7,0.39,4.86,10
119306,257,7,0.75,4.79,8.51
119310,257,7,0.94,7.1,7.34
119314,257,7,0.59,5.77,9.14
119317,257,7,1.22,5.69,13.89
119321,257,7,0.51,5.06,14.67
119325,257,7,1.02,5.22,14.12
119329,257,7,1.18,6.43,11.02
119333,257,7,1.65,8,8.55
119336,257,7,1.49,6.28,13.38
119341,257,7,2.35,5.41,13.45
119345,257,7,2.08,6.28,11.3
119349,257,7,1.8,6.16,8.32
119353,257,7,1.26,7.14,6.32
119356,257,7,1.92,7.34,5.77
119360,257,7,2.12,7.41,5.37
119364,257,7,2,4.04,9.49
119368,257,7,2.2,4.79,9.89
119371,257,7,1.65,5.1,8.55
119375,257,7,1.73,5.18,6
119379,257,7,1.06,5.53,7.88
119384,257,7,1.18,5.45,8.16
119387,257,7,0.86,4.98,8.16
119391,257,7,1.49,5.45,8.71
119395,257,7,0.59,6,9.81
119399,257,7,0.31,6.28,9.69
119402,257,7,0.39,6.75,8.47
119406,257,7,0.2,5.37,8.43
119410,257,7,0.9,4.86,10.71
119414,257,7,0.98,4.24,11.61
119418,257,7,0.82,4.24,11.96
119421,257,7,0.71,7.14,9.22
119426,257,7,1.06,6.12,9.34
119430,257,7,1.8,6.79,7.22
119434,225,8,2.08,7.92,4.59
119437,225,8,2.43,6.9,6
119441,225,8,1.92,4.39,7.92
119445,225,8,1.61,4.75,5.92
119449,225,8,1.26,5.84,8.16
119453,225,8,1.41,3.8,9.38
119456,225,8,1.53,3.69,9.1
119460,225,8,2.55,6.86,8.63
119464,225,8,1.88,4.47,9.85
119469,225,8,1.29,3.26,12.4
119472,225,8,0.59,3.96,19.26
119476,225,8,1.29,0.75,25.65
119480,225,8,2,3.41,16.95
119484,225,8,0.43,7.14,13.22
119488,225,8,2.39,8.75,7.06
119491,225,8,-1.57,10.63,9.14
119495,225,8,1.45,6.59,5.22
119499,225,8,0.86,5.02,4.71
119503,225,8,1.57,4.67,4.08
119506,225,8,1.37,6.47,0.71
119511,225,8,2.51,6.9,2.43
119515,225,8,1.77,5.22,7.34
119519,225,8,0.35,3.84,11.49
119523,225,8,0.71,2.55,9.69
119526,225,8,-0.43,4.9,10.24
119530,225,8,-0.67,3.92,14.59
119534,225,8,-0.35,4.86,16.2
119538,225,8,0.67,5.22,16
119542,225,8,1.77,6.08,13.96
119545,225,8,1.06,7.22,12.24
119549,225,8,0.82,7.69,10.63
119554,225,8,0.04,7.49,8.71
119558,225,8,0.63,9.14,9.85
119561,225,8,2.12,5.88,8.36
119565,225,8,2.28,6.24,7.1
119569,225,8,2.79,5.1,6.63
119573,225,8,2.39,5.57,5.96
119577,225,8,2.31,3.8,6.9
119580,225,8,1.77,4.39,6.51
119584,225,8,1.73,5.57,9.18
119588,225,8,0.82,4.51,9.89
119592,225,8,0.63,4.04,11.26
119596,225,8,0.27,3.69,11.45
119600,225,8,0.39,6.47,10.43
119604,225,8,0.59,7.14,9.77
119608,225,8,0.51,6.04,10.9
119612,225,8,0.35,5.26,10.87
119615,225,8,0.78,5.14,10.28
119619,225,8,0.9,4.35,10.32
119623,225,8,1.41,3.73,9.77
119627,225,8,1.29,3.41,9.26
119631,225,8,1.73,5.18,9.3
119634,225,8,1.73,4.47,8.39
119639,225,8,1.84,6.2,8.43
119643,225,8,2.04,6.16,9.92
119647,225,8,1.33,5.37,10.98
119650,225,8,1.41,5.96,10.83
119654,225,8,1.06,4.51,10.36
119658,225,8,0.94,4.98,9.85
119662,225,8,1.33,5.1,9.22
119666,225,8,1.37,4.75,9.02
119669,225,8,1.37,6.28,8.87
119673,225,8,1.18,6,9.1
119677,243,7.41,1.02,5.02,9.49
119682,243,7.41,0.86,4.51,9.73
119685,243,7.41,1.06,6.08,9.22
119689,243,7.41,1.41,6.12,9.06
119693,243,7.41,1.33,3.73,9.34
119697,243,7.41,1.61,5.26,9.38
119701,243,7.41,1.65,4.04,10.16
119704,243,7.41,1.65,4.86,9.69
119708,243,7.41,1.88,6,9.26
119712,243,7.41,1.92,5.45,9.89
119716,243,7.41,1.77,2.59,10.9
119720,243,7.41,1.33,7.26,10.16
119724,243,7.41,2.28,6.55,9.45
119728,243,7.41,2.04,4.98,10.67
119732,243,7.41,1.8,2.9,11.18
119736,243,7.41,1.65,4.12,9.89
119740,243,7.41,1.92,4.75,9.14
119743,243,7.41,2.35,6.24,9.61
119747,243,7.41,1.84,4.94,9.85
119751,243,7.41,1.57,5.26,9.92
119755,243,7.41,1.41,4.2,9.69
119758,243,7.41,1.53,3.57,9.45
119762,243,7.41,1.8,4.75,9.1
119767,243,7.41,1.41,2.71,9.45
119771,243,7.41,1.14,2.67,9.06
119775,243,7.41,2.24,11.92,6.35
119778,243,7.41,2.98,12.83,5.41
119782,243,7.41,2.71,10.87,8.55
119786,243,7.41,1.06,6.28,12.51
119790,243,7.41,0.16,0.2,11.02
119794,243,7.41,0.55,2.67,9.1
119797,243,7.41,1.92,4.71,7.81
119801,243,7.41,2.47,9.14,8.12
119805,243,7.41,2.28,7.02,10.83
119810,243,7.41,1.53,3.06,14.55
119814,243,7.41,0.67,-0.71,15.26
119818,243,7.41,0.9,-1.37,12.32
119821,243,7.41,1.65,0,8.51
119825,243,7.41,2.75,4.28,7.49
119829,243,7.41,2.55,7.85,7.18
119833,243,7.41,1.73,7.02,10.04
119837,243,7.41,0.78,5.65,11.81
119840,243,7.41,0.04,5.57,11.92
119844,243,7.41,0.43,3.73,10.04
119848,243,7.41,0.71,3.96,9.61
119853,243,7.41,0.82,4,9.02
119856,243,7.41,0.51,4.79,9.02
119860,243,7.41,0.82,7.41,9.41
119864,243,7.41,0.63,5.45,10.04
119868,243,7.41,0.04,5.33,10.67
119872,243,7.41,0.82,3.65,10.36
119876,243,7.41,0.98,3.06,9.61
119879,243,7.41,0.94,2.63,9.18
119883,206,8.74,0.75,5.06,9.14
119887,206,8.74,0.71,6.86,9.1
119891,206,8.74,1.45,7.85,9.53
119895,206,8.74,1.1,5.37,10.51
119899,206,8.74,1.1,7.88,10.08
119903,206,8.74,0.67,6.63,9.41
119907,206,8.74,0.43,7.14,8.51
119911,206,8.74,0.47,7.37,8.12
119914,206,8.74,0.08,5.37,8.59
119918,206,8.74,0.08,5.18,9.06
119922,206,8.74,0.39,5.53,9.26
119926,206,8.74,1.02,5.37,9.57
119929,206,8.74,1.1,4.82,9.57
119933,206,8.74,1.29,6,8.87
119938,206,8.74,2.51,9.69,7.22
119942,206,8.74,1.73,8.12,11.89
119946,206,8.74,1.02,4.63,14.08
119949,206,8.74,0.82,2.47,12.79
119953,206,8.74,1.26,3.22,9.57
119957,206,8.74,1.61,2.51,9.18
119961,206,8.74,1.84,4.16,8.2
119965,206,8.74,1.69,6.71,8.47
119968,206,8.74,1.8,7.61,10.47
119972,206,8.74,0.94,6,10.75
119976,206,8.74,0.98,4.94,8.12
119981,206,8.74,1.57,5.14,6.12
119985,206,8.74,1.49,5.37,5.02
119988,206,8.74,1.92,8.87,4.47
119992,206,8.74,2.79,11.22,3.65
119996,206,8.74,3.53,12.4,3.69
120000,206,8.74,2.24,8.83,5.22
120004,206,8.74,1.49,1.53,7.96
120007,206,8.74,0.16,-7.02,9.61
120011,206,8.74,1.61,-1.57,6.94
120015,206,8.74,3.53,7.65,3.49
120019,206,8.74,1.41,8,4.47
120023,206,8.74,-1.29,6.04,14.87
120027,206,8.74,-2.31,0.59,18.99
120031,206,8.74,-1.14,2.35,22.79
120035,206,8.74,0.31,2.79,19.89
120039,206,8.74,2.12,6.35,13.42
120043,206,8.74,4.08,5.61,10.51
120046,206,8.74,1.96,2.59,14.24
120050,206,8.74,1.69,3.65,11.85
120054,206,8.74,4.28,-0.12,13.81
120058,206,8.74,0.71,6.35,13.26
120062,206,8.74,1.77,6.43,12.79
120067,206,8.74,2.39,6.32,13.18
120070,206,8.74,2.79,6.83,12
120074,206,8.74,2.24,7.53,9.65
120078,206,8.74,0.51,6.2,10.55
120082,206,8.74,1.33,7.1,13.06
120086,206,8.74,-0.43,5.92,11.96
120089,206,8.74,0.51,4.55,9.85
120093,206,8.74,1.02,4.35,7.18
120097,206,8.74,1.8,4.51,3.84
120101,206,8.74,2.71,5.3,6.08
120105,222,8.11,0.27,4.12,13.3
120109,222,8.11,1.77,5.22,13.85
120113,222,8.11,1.1,5.92,14.36
120117,222,8.11,2.31,7.02,13.14
120121,222,8.11,2.82,7.1,12.51
120125,222,8.11,2.9,5.69,12.16
120128,222,8.11,3.65,3.61,13.85
120132,222,8.11,2.16,2.63,15.3
120136,222,8.11,2.2,4.63,12.98
120140,222,8.11,0.04,8.51,9.65
120144,222,8.11,2.43,8.87,5.65
120148,222,8.11,2.63,10.9,5.22
120152,222,8.11,1.53,8.39,5.33
120156,222,8.11,1.49,7.37,5.41
120160,222,8.11,0.47,6.28,5.65
120164,222,8.11,1.41,3.92,6.24
120167,222,8.11,1.57,3.8,8.16
120171,222,8.11,2.71,6,4.59
120175,222,8.11,3.61,7.81,4.43
120179,222,8.11,3.92,7.06,5.57
120183,222,8.11,3.14,5.18,8.43
120186,222,8.11,2.75,4.71,10.12
120190,222,8.11,2.63,4.04,11.65
120195,222,8.11,2.43,4.82,8.55
120199,222,8.11,2.31,6.79,7.06
120203,222,8.11,2.98,8.16,5.61
120206,222,8.11,2.04,8.28,6.98
120210,222,8.11,2,4.43,7.57
120214,222,8.11,1.26,3.73,8.63
120218,222,8.11,2.67,1.02,8.75
120221,222,8.11,2.31,3.37,8.36
120225,222,8.11,3.14,4.79,8.28
120229,222,8.11,3.26,4.12,9.73
120233,222,8.11,2.55,7.96,11.73
120238,222,8.11,2.59,6,12.83
120242,222,8.11,1.49,4.63,10.79
120245,222,8.11,2.47,2.75,7.45
120249,222,8.11,2.67,3.61,5.77
120253,222,8.11,2.28,2.16,7.77
120257,222,8.11,2.24,2.16,14.91
120261,222,8.11,2.16,0.63,15.38
120264,222,8.11,2.79,2.31,11.96
120268,222,8.11,4.24,4.04,9.02
120272,222,8.11,3.06,1.69,10.71
120276,222,8.11,2.79,3.65,13.81
120281,222,8.11,2.51,2.9,14.55
120284,222,8.11,1.96,5.57,12.67
120288,222,8.11,2.39,7.34,9.26
120292,222,8.11,2.75,3.57,10.87
120296,222,8.11,2.43,3.84,12.32
120300,222,8.11,2.39,2.31,10.83
120304,199,9.05,2.55,4.55,10.04
120307,199,9.05,2.31,6.71,8.83
120311,199,9.05,2.43,7.96,8.75
120315,199,9.05,1.84,6.39,10.98
120320,199,9.05,2.16,4.63,12.12
120324,199,9.05,2.51,5.41,12.79
120327,199,9.05,1.92,6.43,11.69
120331,199,9.05,2.39,8.12,8.63
120335,199,9.05,2.59,7.92,7.26
120339,199,9.05,1.53,5.84,8.71
120343,199,9.05,1.57,5.61,11.45
120346,199,9.05,2.43,6.79,10.4
120350,199,9.05,2.35,8.08,8.75
120354,199,9.05,1.8,8.67,8.16
120358,199,9.05,2.12,5.57,9.89
120363,199,9.05,1.26,6.98,10.24
120366,199,9.05,2.98,6.98,8.67
120370,199,9.05,1.88,6.28,10.71
120374,199,9.05,2.04,7.81,10.08
120378,199,9.05,2.51,6.63,5.22
120382,199,9.05,1.41,9.45,5.61
120385,199,9.05,2.43,4.16,11.1
120389,199,9.05,0.43,4.35,12.08
120393,199,9.05,2.51,4.51,10.59
120397,199,9.05,2.43,4.47,9.38
120401,199,9.05,2.86,6.04,8.16
120404,199,9.05,3.37,4.98,5.61
120409,199,9.05,2.47,5.02,6.2
120413,199,9.05,2.94,5.69,7.77
120417,199,9.05,2.39,5.92,9.06
120420,199,9.05,1.49,5.06,9.69
120424,199,9.05,2.39,6.71,7.73
120428,199,9.05,2.94,5.22,8.16
120432,199,9.05,2.9,3.45,7.26
120436,199,9.05,2.51,4.75,5.96
120439,199,9.05,2.39,5.1,11.3
120443,199,9.05,2.31,3.73,12.91
120448,199,9.05,1.96,5.41,12.08
120452,199,9.05,1.84,5.3,11.89
120456,199,9.05,2.28,4.86,12.12
120459,199,9.05,2.55,4.75,10.67
120463,199,9.05,3.77,5.84,9.92
120467,199,9.05,2.79,6.39,9.38
120471,199,9.05,2.63,3.69,9.69
120475,199,9.05,2.59,7.22,8.67
120478,199,9.05,2.39,5.1,10.32
120482,199,9.05,0.98,5.61,8.55
120486,199,9.05,1.96,6.71,8.67
120491,199,9.05,2.2,4.2,10.59
120495,199,9.05,1.26,6.08,9.26
120498,199,9.05,2.55,7.45,9.69
120502,199,9.05,1.06,4.9,8.87
120506,199,9.05,1.96,3.77,9.92
120510,199,9.05,1.8,5.1,9.45
120513,199,9.05,2.24,4.9,7.65
120517,199,9.05,2.47,6.2,7.88
120521,199,9.05,1.53,5.61,7.77
120525,199,9.05,1.02,5.37,8.16
120528,199,9.05,1.06,4.16,10.9
120532,199,9.05,1.41,5.18,9.85
120537,233,7.73,1.29,4.51,9.81
120541,233,7.73,2.12,3.14,10.08
120545,233,7.73,1.65,6.12,7.73
120548,233,7.73,1.41,7.1,8.59
120552,233,7.73,1.02,7.96,9.38
120556,233,7.73,1.26,6.39,9.53
120560,233,7.73,1.41,3.33,10.32
120564,233,7.73,1.06,2.86,9.73
120567,233,7.73,1.77,4.94,8.55
120571,233,7.73,0.67,5.02,7.22
120576,233,7.73,1.1,6.43,7.34
120580,233,7.73,0.35,4.67,8.94
120583,233,7.73,0.51,5.57,9.73
120587,233,7.73,3.18,4.79,9.92
120591,233,7.73,0,3.96,9.73
120595,233,7.73,0.78,5.81,10.63
120599,233,7.73,0.31,3.84,10.2
120602,233,7.73,-0.51,6,13.22
120606,233,7.73,-0.39,4.39,10.36
120610,233,7.73,-0.51,7.14,10.83
120614,233,7.73,-0.35,5.88,8.55
120619,233,7.73,0.08,3.73,11.85
120623,233,7.73,0.27,6.98,10.2
120626,233,7.73,0.12,5.22,9.53
120630,233,7.73,0,7.45,8.39
120634,233,7.73,-0.35,7.65,8.67
120638,233,7.73,0.31,6.79,7.14
120641,233,7.73,-0.2,5.53,6.28
120645,233,7.73,0.98,3.65,8
120649,233,7.73,0.31,4.94,7.1
120653,233,7.73,0.55,5.06,3.49
120656,233,7.73,-0.27,9.77,3.1
120660,233,7.73,-0.35,8.71,6.24
120665,233,7.73,0.35,5.33,9.45
120669,233,7.73,1.49,5.69,9.26
120673,233,7.73,1.92,4.71,7.81
120676,233,7.73,1.8,6.35,6.63
120680,233,7.73,2.28,6.16,8.36
120684,233,7.73,1.33,5.18,10.98
120688,233,7.73,1.61,4.79,11.38
120692,233,7.73,1.69,5.96,9.3
120695,233,7.73,1.37,6.55,8.83
120699,233,7.73,1.37,5.65,8.98
120704,233,7.73,1.22,5.06,10.24
120708,233,7.73,0.98,5.61,11.96
120712,233,7.73,1.65,3.18,7.77
120715,233,7.73,1.45,4.28,10.43
120719,233,7.73,1.18,1.8,11.57
120723,186,9.68,0.63,7.34,8.39
120727,186,9.68,0.16,7.45,9.18
120731,186,9.68,-0.12,5.96,12.2
120734,186,9.68,0.08,4.79,10.75
120738,186,9.68,0.51,6.24,11.73
120742,186,9.68,0.12,4.28,9.85
120747,186,9.68,0.2,5.02,8.12
120751,186,9.68,0.12,3.96,10.83
120754,186,9.68,-0.24,5.65,9.96
120758,186,9.68,-0.04,6.08,11.38
120762,186,9.68,-0.16,5.22,12.04
120766,186,9.68,-0.43,4.04,10.9
120770,186,9.68,0.35,5.37,10.43
120773,186,9.68,0.04,4.08,8.12
120777,186,9.68,0.47,5.1,10.59
120781,186,9.68,0.16,3.69,7.96
120785,186,9.68,-0.04,5.26,8.75
120790,186,9.68,0.08,4.31,11.41
120793,186,9.68,0.04,4.75,11.96
120797,186,9.68,-0.39,5.61,10.71
120801,186,9.68,-0.59,5.53,8.83
120805,186,9.68,-0.31,6.79,7.22
120809,186,9.68,0.78,6.43,6.39
120812,186,9.68,0,6.08,11.34
120816,186,9.68,0.98,4.12,13.96
120820,186,9.68,0.31,5.45,12.63
120824,186,9.68,0.47,6.94,6.51
120828,186,9.68,-0.31,6.86,4.82
120832,186,9.68,-0.39,5.96,5.37
120836,186,9.68,0.04,4.79,5.88
120840,186,9.68,0.27,4.55,5.88
120844,186,9.68,1.37,4.67,3.77
120847,186,9.68,0.59,5.61,7.26
120851,186,9.68,0.71,3.77,8.87
120855,186,9.68,0.39,2.86,11.22
120859,186,9.68,0.27,3.06,11.06
120863,186,9.68,0.39,5.26,9.06
120866,186,9.68,0.47,7.49,8.2
120870,186,9.68,1.49,7.41,7.49
120875,186,9.68,2,9.85,10.2
120879,186,9.68,1.77,7.61,13.73
120883,186,9.68,0.27,8.12,13.06
120886,186,9.68,0.71,6.28,12.67
120890,186,9.68,0.27,5.33,8.83
120894,186,9.68,0.63,5.49,9.92
120898,186,9.68,0.98,2.59,12.98
120902,186,9.68,1.77,4.55,11.57
120905,186,9.68,1.96,5.53,9.92
120909,186,9.68,0.31,5.77,8.79
120913,186,9.68,0.24,3.84,9.61
120918,186,9.68,-0.35,3.49,8.71
120921,186,9.68,0.16,3.8,9.57
120925,186,9.68,0.82,4.43,9.77
120929,186,9.68,0.75,5.73,9.02
120933,210,8.57,1.02,5.1,10.24
120937,210,8.57,0.82,4.12,10.16
120940,210,8.57,1.06,1.18,10.36
120944,210,8.57,1.37,1.26,12
120948,210,8.57,1.61,-0.12,10.87
120952,210,8.57,1.8,2.79,15.85
120956,210,8.57,1.84,6.51,13.02
120961,210,8.57,2.94,11.38,9.1
120964,210,8.57,2.55,11.49,8.04
120968,210,8.57,1.57,6.55,11.53
120972,210,8.57,2.16,0.98,15.18
120976,210,8.57,2.43,0.82,12.63
120980,210,8.57,3.14,1.06,10.9
120983,210,8.57,3.18,6.24,10.75
120987,210,8.57,2.71,7.45,8.63
120991,210,8.57,2.86,10.04,6.51
120995,210,8.57,2.12,9.77,8.79
120999,210,8.57,1.69,7.77,10.87
121004,210,8.57,1.61,4.71,12.16
121007,210,8.57,2.04,3.92,12.43
121011,210,8.57,3.26,4.9,8.79
121015,210,8.57,2.31,6.35,8.36
121019,210,8.57,2.82,7.65,5.84
121022,210,8.57,2.98,6.98,8.28
121026,210,8.57,3.22,3.69,11.3
121030,210,8.57,2.59,6.2,9.18
121034,210,8.57,2.08,3.73,10.63
121038,210,8.57,1.69,4.71,8.67
121041,210,8.57,1.37,4,9.77
121046,210,8.57,1.73,2.43,12.04
121050,210,8.57,1.14,4.35,10
121054,210,8.57,0.86,5.92,10.04
121058,210,8.57,0.59,6.04,8.16
121061,210,8.57,0.59,4.98,7.88
121065,210,8.57,1.22,3.61,9.06
121069,210,8.57,0.94,3.06,10.51
121073,210,8.57,0.71,2.31,10.79
121077,210,8.57,0.55,4.08,9.06
121080,210,8.57,1.73,4.94,6.47
121084,210,8.57,1.53,6.55,5.84
121089,210,8.57,1.49,6.94,5.65
121093,210,8.57,1.18,4.94,7.69
121096,210,8.57,1.37,4.31,9.02
121100,210,8.57,1.14,3.53,8.67
121104,210,8.57,1.77,3.61,8.67
121108,210,8.57,0.43,5.57,8.24
121112,210,8.57,1.88,6.98,6.24
121115,210,8.57,1.77,5.33,10.67
121119,210,8.57,1.14,3.96,10.2
121123,190,9.47,1.41,4.12,10
121127,190,9.47,0.59,6.39,9.34
121132,190,9.47,1.14,7.65,9.81
121135,190,9.47,0.86,7.1,9.14
121139,190,9.47,1.73,6.63,10.71
121143,190,9.47,1.65,5.84,11.1
121147,190,9.47,1.53,5.1,11.02
121151,190,9.47,1.06,5.18,10.9
121155,190,9.47,0.51,4.12,9.89
121158,190,9.47,1.14,4.9,10.2
121162,190,9.47,1.53,3.65,8.98
121166,190,9.47,1.53,5.06,9.61
121170,190,9.47,1.45,6.16,10.59
121174,190,9.47,0.47,5.84,11.06
121178,190,9.47,0.39,6.24,9.34
121182,190,9.47,0.51,4.12,9.65
121186,190,9.47,0.94,3.06,9.34
121190,190,9.47,0.63,2.59,10.98
121193,190,9.47,0.2,1.57,11.14
121197,190,9.47,0.16,6.12,10.2
121201,190,9.47,0.2,7.45,8.71
121205,190,9.47,0.55,7.26,11.1
121209,190,9.47,0.55,3.92,13.06
121212,190,9.47,0.75,4.43,9.77
121217,190,9.47,0.94,5.26,10.28
121221,190,9.47,0.47,6.39,10.75
121225,190,9.47,1.29,5.26,11.06
121229,190,9.47,1.8,7.34,10.2
121233,190,9.47,1.69,8.47,8.79
121236,190,9.47,1.1,7.06,9.1
121240,190,9.47,0.75,4.43,8.75
121244,190,9.47,0.82,2.55,7.96
121248,190,9.47,1.18,2.47,8.12
121251,190,9.47,0.63,3.06,8.98
121255,190,9.47,0.75,8.79,5.61
121260,190,9.47,0.98,11.18,4.86
121264,190,9.47,1.69,9.34,6.16
121268,190,9.47,1.8,7.37,8.08
121271,190,9.47,1.18,6.67,7.53
121275,190,9.47,1.22,4.75,10.36
121279,190,9.47,0.9,2.31,8.9
121283,190,9.47,1.33,11.02,5.84
121287,190,9.47,0.98,9.73,4.98
121290,190,9.47,1.41,10.32,6.59
121294,190,9.47,1.53,4.71,7.45
121298,190,9.47,1.22,4.04,9.38
121303,190,9.47,0.67,1.8,10.9
121306,190,9.47,-0.27,4.31,9.49
121310,190,9.47,0.78,6.9,10.67
121314,190,9.47,1.02,5.3,12.91
121318,190,9.47,1.37,4.16,12.71
121322,190,9.47,0.24,3.18,11.61
121326,190,9.47,-0.2,2.28,11.02
121329,190,9.47,-0.16,5.57,7.22
121333,190,9.47,0.2,5.37,9.26
121337,214,8.41,0.59,6.55,8.39
121341,214,8.41,1.33,4.51,11.92
121346,214,8.41,1.45,3.06,12.04
121349,214,8.41,0.82,4.35,11.77
121353,214,8.41,0.39,4.86,11.38
121357,214,8.41,0.27,5.14,12.43
121361,214,8.41,0.51,6.86,12.08
121365,214,8.41,0.55,4.86,12.79
121368,214,8.41,0.9,2.94,14.2
121372,214,8.41,0.71,4.51,13.49
121376,214,8.41,0.75,6.16,12.51
121380,214,8.41,0.51,7.3,10.98
121384,214,8.41,1.1,7.1,11.06
121389,214,8.41,1.18,4.47,11.65
121392,214,8.41,1.22,4.79,11.61
121396,214,8.41,0.59,6,10.2
121400,214,8.41,1.22,5.02,9.85
121404,214,8.41,1.1,5.45,7.1
121407,214,8.41,1.61,6.83,6
121411,214,8.41,1.69,6.39,8.83
121415,214,8.41,1.53,7.45,8.32
121419,214,8.41,1.18,6.39,10.47
121423,214,8.41,1.1,7.41,10.59
121426,214,8.41,0.78,7.3,8.98
121431,214,8.41,1.22,5.3,8.9
121435,214,8.41,1.06,5.18,9.06
121439,214,8.41,1.14,5.26,8.67
121443,214,8.41,0.75,6.16,6.9
121446,214,8.41,0.71,4.63,7.22
121450,214,8.41,0.82,7.88,8.39
121454,214,8.41,1.33,5.49,7.3
121458,214,8.41,0.98,6.08,7.65
121461,214,8.41,1.1,5.65,8.12
121465,214,8.41,0.86,5.1,8.55
121469,214,8.41,1.06,6,8.94
121474,214,8.41,0.35,5.14,7.3
121478,214,8.41,1.02,6.16,7.45
121481,214,8.41,1.53,4.98,9.22
121485,214,8.41,0.78,5.33,10.4
121489,214,8.41,1.06,4.63,11.18
121493,214,8.41,0.63,5.61,11.81
121497,214,8.41,0.31,6.9,8.9
121500,214,8.41,0.12,7.45,9.06
121504,214,8.41,0.31,6.28,8.75
121508,214,8.41,1.1,6.55,6.35
121512,175,10.29,0.59,7.06,7.77
121516,175,10.29,0.31,5.45,8.9
121520,175,10.29,0.24,5.26,8.87
121524,175,10.29,0.98,4,8.08
121528,175,10.29,0.59,7.18,7.69
121532,175,10.29,0.39,7.02,8.2
121536,175,10.29,0.59,8.39,8.2
121539,175,10.29,1.02,8.47,9.57
121543,175,10.29,0.98,6.75,10.43
121547,175,10.29,0.55,4.98,10.87
121551,175,10.29,0.98,8.67,9.57
121555,175,10.29,1.29,6.08,9.69
121560,175,10.29,1.22,3.84,11.3
121563,175,10.29,1.29,4.39,8.83
121567,175,10.29,1.45,1.1,11.1
121571,175,10.29,1.41,2.75,10.08
121575,175,10.29,1.18,3.8,9.26
121579,175,10.29,1.65,4.67,10.12
121583,175,10.29,1.33,4.47,7.88
121587,175,10.29,1.1,5.33,11.14
121590,175,10.29,1.1,6,10.83
121594,175,10.29,0.86,5.33,11.81
121598,175,10.29,1.1,3.57,10.59
121603,175,10.29,0.86,3.8,11.53
121607,175,10.29,1.37,4.39,11.18
121611,175,10.29,1.02,6.79,8.39
121615,175,10.29,3.06,3.22,7.49
121618,175,10.29,1.53,5.3,7.41
121622,175,10.29,1.49,4.63,7.37
121626,175,10.29,1.37,4.63,10
121630,175,10.29,1.73,3.84,11.14
121634,175,10.29,1.14,2.86,11.02
121638,175,10.29,0.78,4.9,10.79
121643,175,10.29,0.16,5.92,10.43
121647,175,10.29,0.39,5.45,9.57
121650,175,10.29,0.04,5.61,10.4
121654,175,10.29,0.35,5.41,10.12
121658,175,10.29,0.39,5.18,10.24
121662,175,10.29,0.71,5.77,8
121666,175,10.29,0.98,4.63,7.73
121670,175,10.29,0.98,4.31,6.24
121673,175,10.29,0.71,8.98,4.08
121677,175,10.29,1.53,6.35,7.77
121681,175,10.29,1.02,7.85,9.57
121686,175,10.29,1.53,6.28,11.22
121690,175,10.29,1.06,4.82,10.98
121694,175,10.29,1.14,4.75,9.38
121697,185,9.73,1.73,3.61,10.08
121701,185,9.73,2.08,3.73,7.77
121705,185,9.73,2.12,7.3,7.1
121709,185,9.73,1.73,8.87,8.75
121713,185,9.73,0.9,9.18,9.34
121716,185,9.73,1.88,6.59,9.3
121720,185,9.73,2.28,7.65,12.63
121724,185,9.73,2.12,6.47,9.85
121729,185,9.73,2,5.88,11.38
121733,185,9.73,2.43,6.98,8.9
121736,185,9.73,1.8,6.83,8.94
121740,185,9.73,1.73,7.1,9.1
121744,185,9.73,1.49,6.55,7.02
121748,185,9.73,2.24,8.71,6.47
121751,185,9.73,1.65,5.37,7.73
121755,185,9.73,1.73,6.59,7.69
121759,185,9.73,1.49,5.02,9.3
121763,185,9.73,1.22,1.77,9.45
121767,185,9.73,1.37,5.45,10.16
121771,185,9.73,0.98,3.45,10.94
121775,185,9.73,1.33,4.39,10.94
121779,185,9.73,1.06,3.18,9.41
121783,185,9.73,0.82,5.02,10.4
121787,185,9.73,1.22,4.39,9.26
121790,185,9.73,0.43,2.75,10.9
121794,185,9.73,1.33,3.92,8.83
121798,185,9.73,1.41,4.82,7.85
121802,185,9.73,0.94,3.88,9.92
121806,185,9.73,0.9,3.37,11.14
121809,185,9.73,0.78,1.53,10.51
121814,185,9.73,0.67,4.12,11.81
121818,185,9.73,0.24,5.81,10.55
121822,185,9.73,0.78,4.28,10.98
121826,185,9.73,1.02,4.43,11.38
121830,185,9.73,0.78,2.98,9.85
121833,185,9.73,0.82,4.35,10.08
121837,185,9.73,0.55,3.73,8.59
121841,185,9.73,1.14,5.92,9.96
121845,185,9.73,0.63,5.3,7.73
121848,185,9.73,0.43,7.65,9.06
121852,185,9.73,0.86,6.35,9.14
121857,185,9.73,0.24,6.55,9.69
121861,185,9.73,0.51,5.06,9.85
121865,185,9.73,0.82,4.71,8.47
121868,171,10.53,0.9,6.63,9.34
121872,171,10.53,0.75,4.75,6.9
121876,171,10.53,1.22,7.1,8.94
121880,171,10.53,1.37,4.98,10.28
121884,171,10.53,1.73,5.88,10.67
121888,171,10.53,1.77,5.65,9.34
121891,171,10.53,2.08,5.18,11.92
121895,171,10.53,2.94,5.88,9.61
121900,171,10.53,2.31,7.49,10.04
121904,171,10.53,2.59,8.59,10.12
121908,171,10.53,1.84,7.65,8.94
121912,171,10.53,2.31,5.88,9.85
121915,171,10.53,1.8,5.49,10.59
121919,171,10.53,2,4.55,8.75
121923,171,10.53,1.88,6.51,8.71
121927,171,10.53,1.45,6.59,8.04
121931,171,10.53,1.77,5.88,7.77
121935,171,10.53,1.18,4.67,7.77
121938,171,10.53,1.37,4.9,8.67
121943,171,10.53,1.37,5.18,8.47
121947,171,10.53,1.22,3.61,9.1
121951,171,10.53,0.82,5.1,10.36
121955,171,10.53,0.86,3.37,11.57
121959,171,10.53,0.9,3.37,13.69
121963,171,10.53,1.57,2.31,11.61
121966,171,10.53,1.41,4.12,12.47
121970,171,10.53,0.98,3.77,11.14
121974,171,10.53,0.71,4.59,9.22
121978,171,10.53,0.9,4.86,11.22
121982,171,10.53,1.18,4.75,11.92
121987,171,10.53,1.37,4.94,9.49
121991,171,10.53,1.53,5.65,9.26
121994,171,10.53,1.53,4.39,10.2
121998,171,10.53,1.37,4.28,7.1
122002,171,10.53,1.53,3.57,9.26
122006,171,10.53,1.33,4.12,9.57
122010,171,10.53,1.1,3.26,9.02
122014,171,10.53,1.53,3.84,8.98
122017,171,10.53,1.92,4.79,9.49
122021,171,10.53,2.16,5.22,8.9
122025,171,10.53,1.61,4.86,10
122030,171,10.53,1.65,4.35,10.83
122034,171,10.53,1.8,3.8,11.1
122038,171,10.53,1.18,3.45,10.04
122042,171,10.53,1.96,4.16,12.91
122045,171,10.53,1.92,3.8,10.2
122049,171,10.53,1.33,5.77,8.04
122053,171,10.53,1.41,7.37,7.77
122057,171,10.53,0.9,6.08,8.83
122061,171,10.53,0.82,5.61,11.3
122065,197,9.14,1.1,4.75,11.26
122068,197,9.14,1.22,7.45,8.94
122073,197,9.14,0.67,6.39,7.18
122077,197,9.14,1.14,5.77,5.73
122081,197,9.14,0.47,9.26,6.75
122085,197,9.14,1.22,5.69,9.89
122088,197,9.14,1.1,5.1,11.45
122092,197,9.14,1.29,5.69,9.61
122096,197,9.14,1.61,6.63,9.02
122100,197,9.14,1.61,5.06,10.51
122104,197,9.14,1.88,6.04,9.06
122107,197,9.14,0.86,5.69,9.73
122112,197,9.14,0.27,4.75,12.55
122116,197,9.14,-0.04,5.26,11.49
122120,197,9.14,0.67,5.57,10.87
122124,197,9.14,0.16,6.83,11.26
122127,197,9.14,-0.12,6.24,10.55
122131,197,9.14,-0.27,7.65,8.98
122135,197,9.14,1.02,6.98,8.47
122139,197,9.14,0.59,5.61,9.57
122143,197,9.14,-0.08,5.3,7.81
122146,197,9.14,-0.08,5.92,6.86
122150,197,9.14,-0.51,7.37,6.55
122155,197,9.14,0.78,7.14,4.63
122159,197,9.14,-1.65,4.94,7.06
122162,197,9.14,-0.08,3.45,8.79
122166,197,9.14,-0.55,4.9,6.28
122170,197,9.14,-0.04,3.3,6.79
122174,197,9.14,-0.04,4.82,9.14
122178,197,9.14,0.2,3.57,9.1
122181,197,9.14,0.24,6.04,9.89
122185,197,9.14,-0.39,6.55,7.92
122189,197,9.14,-1.1,3.96,12.71
122193,197,9.14,-0.27,2.63,13.18
122198,197,9.14,0.59,4.86,11.1
122201,197,9.14,-0.98,4.43,7.69
122205,197,9.14,-1.26,7.34,3.69
122209,197,9.14,-1.49,5.3,10.87
122213,197,9.14,-1.65,4.55,10.08
122217,197,9.14,-0.82,3.8,9.61
122220,197,9.14,-0.2,4.71,8.75
122224,197,9.14,-1.57,3.02,8.55
122228,163,11.04,-0.9,4.98,8.51
122232,163,11.04,-0.67,3.37,9.02
122236,163,11.04,-0.12,2.04,11.02
122240,163,11.04,2.2,5.06,8.98
122244,163,11.04,-0.16,7.85,7.49
122248,163,11.04,0.39,7.88,7.49
122252,163,11.04,-0.39,5.92,12.08
122256,163,11.04,0.82,6,13.49
122260,163,11.04,0.71,4.79,12.55
122263,163,11.04,1.02,5.61,10.63
122267,163,11.04,0.47,6.12,8.71
122271,163,11.04,1.53,5.96,6.79
122275,163,11.04,1.33,3.96,10.24
122279,163,11.04,1.61,4.94,7.73
122284,163,11.04,0.94,5.02,8.9
122288,163,11.04,2.2,5.84,9.06
122291,163,11.04,1.29,5.06,8.2
122295,163,11.04,1.73,8.12,9.06
122299,163,11.04,0.55,4.51,10.16
122303,163,11.04,1.65,5.53,9.89
122307,163,11.04,2.2,3.96,11.77
122310,163,11.04,2.08,5.02,11.69
122314,163,11.04,1.61,4.98,9.69
122318,163,11.04,-0.16,4,9.26
122322,163,11.04,1.1,4.75,9.26
122327,163,11.04,-0.47,6.94,9.73
122331,163,11.04,-0.43,6.63,10.79
122334,163,11.04,0.55,5.57,7.92
122338,163,11.04,1.33,9.02,8.36
122342,163,11.04,0.16,5.77,9.53
122346,163,11.04,-0.08,6.35,9.41
122350,163,11.04,0.08,7.06,8.75
122353,163,11.04,-0.08,6.71,8.04
122357,163,11.04,-0.04,3.69,10.59
122361,163,11.04,0.86,5.06,10.24
122365,163,11.04,0.2,3.18,7.73
122370,163,11.04,-0.43,5.1,9.49
122374,163,11.04,0.75,5.1,7.92
122377,163,11.04,-0.43,6.51,7.73
122381,163,11.04,0.51,7.06,9.34
122385,163,11.04,0.98,4.31,11.06
122389,163,11.04,1.37,4.55,10.04
122393,163,11.04,1.29,5.92,11.22
122397,163,11.04,0.9,4.04,10.24
122401,163,11.04,2.39,5.81,11.65
122404,176,10.23,2.55,5.73,8.71
122408,176,10.23,2,7.06,8.47
122413,176,10.23,1.69,5.45,10.75
122417,176,10.23,2.08,3.92,12.51
122421,176,10.23,2.55,4.12,11.02
122425,176,10.23,1.33,5.92,8.36
122429,176,10.23,2.04,5.77,8.28
122432,176,10.23,0.71,7.41,8.32
122436,176,10.23,0.94,6.12,7.88
122440,176,10.23,1.57,5.77,10.36
122444,176,10.23,0.86,4.12,12.24
122448,176,10.23,1.8,4.16,11.18
122452,176,10.23,1.45,6.47,10.04
122456,176,10.23,1.22,8.39,9.3
122460,176,10.23,0.94,8.16,9.61
122464,176,10.23,1.92,8.51,9.34
122468,176,10.23,1.14,6.16,9.53
122472,176,10.23,1.41,6.04,10.08
122476,176,10.23,1.37,8.51,7.77
122480,176,10.23,0.39,6.67,6.71
122483,176,10.23,0.75,7.14,5.81
122487,176,10.23,0.51,7.18,5.1
122491,176,10.23,0.43,3.92,7.92
122496,176,10.23,0.94,5.73,9.34
122500,176,10.23,1.29,5.81,8.12
122503,176,10.23,0.75,3.84,8.98
122507,176,10.23,1.84,6.04,8.47
122511,176,10.23,1.22,5.33,10.08
122515,176,10.23,1.33,6.43,8.32
122519,176,10.23,1.18,4.51,8.12
122523,176,10.23,0.39,2.63,11.34
122527,176,10.23,1.22,2.71,12.08
122530,176,10.23,1.37,2.16,10
122534,176,10.23,2.39,4.43,7.02
122539,176,10.23,1.45,4.04,10.63
122543,176,10.23,1.37,5.57,10.28
122547,176,10.23,1.49,4.2,10.2
122551,176,10.23,2.31,4.31,7.73
122555,176,10.23,2.51,4.67,7.02
122558,176,10.23,2.82,5.96,8.12
122562,176,10.23,2.28,3.61,8.36
122566,176,10.23,2.67,7.06,6.24
122570,166,10.84,2.2,6.98,7.49
122574,166,10.84,2,5.26,12.04
122578,166,10.84,2.35,2.98,11.92
122582,166,10.84,2.94,3.69,11.57
122586,166,10.84,3.37,6.35,9.96
122590,166,10.84,3.53,7.02,12
122594,166,10.84,2.63,5.92,11.18
122598,166,10.84,1.65,5.84,8.51
122602,166,10.84,1.69,8.39,10.55
122606,166,10.84,2.24,4.98,9.61
122609,166,10.84,1.96,5.26,10.4
122613,166,10.84,2.79,8.28,5.33
122617,166,10.84,2.12,6.86,7.02
122621,166,10.84,1.96,5.77,7.92
122626,166,10.84,2.59,3.65,10.2
122630,166,10.84,1.41,5.45,11.26
122634,166,10.84,1.69,6.04,7.18
122637,166,10.84,1.8,8.59,6.08
122641,166,10.84,1.41,5.45,10.59
122645,166,10.84,1.26,3.57,11.81
122649,166,10.84,0.9,3.61,14.16
122653,166,10.84,1.06,3.22,15.34
122657,166,10.84,0.86,5.37,15.14
122660,166,10.84,0.75,6.98,14.87
122664,166,10.84,-1.22,7.06,15.06
122669,166,10.84,1.14,4.71,11.41
122673,166,10.84,0.67,6.75,12.4
122677,166,10.84,0.71,7.57,9.96
122681,166,10.84,1.26,8.2,8.16
122685,166,10.84,0.51,9.92,9.18
122688,166,10.84,0.47,7.18,8.94
122692,166,10.84,-0.39,4.98,9.18
122696,166,10.84,0.24,4.79,9.34
122700,166,10.84,0.71,4.82,7.96
122704,166,10.84,1.02,7.57,5.77
122708,166,10.84,1.88,4.79,4.75
122712,166,10.84,1.29,5.3,6.04
122716,166,10.84,1.73,7.65,5.3
122720,166,10.84,1.45,5.92,4.24
122724,166,10.84,1.14,8.16,4.04
122728,166,10.84,2.24,7.53,3.14
122731,166,10.84,0.59,6.98,6.71
122735,166,10.84,1.45,1.57,13.22
122739,166,10.84,1.33,3.8,8.9
122743,166,10.84,2.98,4.59,12.24
122747,177,10.17,2.16,3.26,12.2
122752,177,10.17,1.77,5.1,11.85
122756,177,10.17,2.04,3.33,12.36
122759,177,10.17,1.37,5.14,11.02
122763,177,10.17,1.53,9.02,11.85
122767,177,10.17,0.82,8.98,11.65
122771,177,10.17,0.2,7.26,10.59
122775,177,10.17,1.1,5.53,12.2
122779,177,10.17,-0.2,2.86,10.16
122783,177,10.17,0.24,3.8,8.47
122787,177,10.17,0.04,6.28,7.69
122790,177,10.17,0.98,5.02,8.12
122795,177,10.17,0.08,3.77,8.32
122799,177,10.17,0.78,6.24,8.63
122803,177,10.17,0.63,6.35,8.87
122807,177,10.17,0.94,3.69,10.4
122810,177,10.17,0.82,2.98,11.41
122814,177,10.17,1.06,3.37,11.77
122818,177,10.17,2.12,5.33,10.36
122822,177,10.17,1.88,5.77,9.89
122826,177,10.17,2.43,4.43,10.16
122830,177,10.17,2.28,4.28,9.18
122834,177,10.17,1.61,3.77,10.12
122839,177,10.17,1.84,2.12,8.28
122842,177,10.17,1.53,3.96,5.53
122846,177,10.17,1.65,5.84,5.65
122850,177,10.17,1.33,6.2,5.33
122854,177,10.17,1.65,4.43,6
122858,177,10.17,1.77,2.16,10.2
122862,177,10.17,1.96,1.69,8.67
122865,177,10.17,2.12,4.47,4.35
122869,177,10.17,1.41,6.08,2.63
122873,177,10.17,1.41,3.61,7.69
122877,177,10.17,1.22,0.94,15.02
122882,177,10.17,1.37,1.92,18.95
122886,177,10.17,1.26,5.1,13.22
122889,177,10.17,0.75,3.84,18.44
122893,146,12.33,2.71,5.45,20.08
122897,146,12.33,1.61,3.65,19.26
122901,146,12.33,2.2,7.14,16.91
122905,146,12.33,0.35,6.43,11.61
122909,146,12.33,0.94,9.1,10.36
122913,146,12.33,0.39,7.06,10.75
122917,146,12.33,0.59,10.51,6.67
122920,146,12.33,0.39,7.88,5.84
122925,146,12.33,0.75,6.55,6.16
122929,146,12.33,0.82,4.31,5.53
122933,146,12.33,0.71,6.67,2.39
122937,146,12.33,-0.08,5.96,2.39
122941,146,12.33,0.24,3.65,7.14
122944,146,12.33,0.31,4,10.67
122948,146,12.33,0.82,4.51,8.39
122952,146,12.33,1.26,5.88,5.14
122956,146,12.33,1.88,5.84,6.43
122960,146,12.33,1.33,5.65,11.57
122964,146,12.33,0.98,5.06,8.51
122968,146,12.33,0.55,5.33,10.67
122972,146,12.33,1.37,6.9,7.57
122976,146,12.33,2.04,7.69,7.96
122980,146,12.33,1.45,10.36,9.53
122984,146,12.33,1.88,5.57,10.75
122988,146,12.33,1.61,5.14,13.57
122992,146,12.33,0.82,2.47,14.75
122995,146,12.33,0.67,5.1,11.06
122999,146,12.33,0.94,6.83,9.18
123003,146,12.33,0.71,4.39,9.45
123008,146,12.33,1.57,5.06,9.96
123012,146,12.33,0.71,4.31,10.87
123016,146,12.33,0.59,1.41,12.12
123020,146,12.33,0.86,5.02,9.81
123023,146,12.33,0.39,4.12,9.18
123027,146,12.33,0.71,3.65,8.79
123031,146,12.33,1.61,4.31,9.38
123035,146,12.33,1.88,3.69,11.49
123039,146,12.33,1.45,2.31,12.12
123043,146,12.33,1.37,3.1,11.69
123046,146,12.33,1.41,4.59,10.71
123051,146,12.33,2.12,7.1,9.53
123055,162,11.11,2.08,4.75,8.83
123059,162,11.11,1.77,4.08,13.61
123063,162,11.11,1.33,2.98,12.2
123067,162,11.11,1.45,5.49,10.16
123071,162,11.11,1.37,6.2,7.57
123074,162,11.11,1.84,6.2,6.98
123078,162,11.11,2,5.33,5.57
123082,162,11.11,1.92,6.94,4.86
123086,162,11.11,1.96,9.57,2.86
123090,162,11.11,2.16,8.36,5.84
123095,162,11.11,1.92,8.16,7.41
123098,162,11.11,1.69,4.94,11.1
123102,162,11.11,0.86,1.06,13.14
123106,162,11.11,0.55,5.22,11.61
123110,162,11.11,0.9,7.02,7.65
123114,162,11.11,0.43,8.51,8.59
123118,162,11.11,0.16,8.32,9.49
123121,162,11.11,0.71,4.94,8.94
123125,162,11.11,0.31,7.73,4.71
123129,162,11.11,0.67,8.51,6.39
123133,162,11.11,0.98,5.77,12.4
123138,162,11.11,0.78,3.37,15.26
123142,162,11.11,0.98,5.73,13.96
123146,162,11.11,0.86,9.22,12.63
123149,162,11.11,0.63,6.55,11.81
123153,162,11.11,0.2,9.1,7.88
123157,162,11.11,0.51,8.47,5.14
123161,162,11.11,0.63,7.96,8.32
123165,162,11.11,0.82,6.86,6.86
123169,162,11.11,0.67,4.16,10.36
123172,162,11.11,0.35,1.77,11.49
123176,162,11.11,0.86,3.22,8.2
123181,162,11.11,1.33,5.88,8.32
123185,162,11.11,0.63,2.71,7.1
123189,162,11.11,0,-0.27,8.51
123193,162,11.11,0.2,5.37,6.94
123196,162,11.11,0.2,7.06,3.02
123200,162,11.11,3.22,11.96,5.61
123204,162,11.11,0.47,10.08,5.18
123208,153,11.76,1.1,6.59,11.96
123212,153,11.76,0.59,6.32,13.3
123216,153,11.76,1.18,5.37,12.04
123220,153,11.76,1.18,8.9,10.47
123224,153,11.76,-0.47,9.65,9.89
123228,153,11.76,1.41,4.28,9.14
123232,153,11.76,1.22,0.75,11.1
123236,153,11.76,1.92,0.51,10.08
123240,153,11.76,2.79,1.96,8.87
123244,153,11.76,3.33,3.84,10
123248,153,11.76,2.59,4.82,11.1
123251,153,11.76,2.59,0.82,13.26
123255,153,11.76,2.35,6.55,13.26
123259,153,11.76,1.96,5.81,15.02
123264,153,11.76,2.24,5.65,12.28
123268,153,11.76,1.02,4.82,11.61
123272,153,11.76,0.43,6.16,7.96
123276,153,11.76,1.02,5.37,7.69
123279,153,11.76,0.24,5.81,7.18
123283,153,11.76,0.55,5.84,7.69
123287,153,11.76,0.16,6.94,6.86
123291,153,11.76,0.9,5.02,4.94
123295,153,11.76,0.24,9.41,7.45
123298,153,11.76,0.39,3.96,9.26
123302,153,11.76,0.55,7.41,9.49
123307,153,11.76,1.22,6.24,7.41
123311,153,11.76,2.04,8.94,8.24
123315,153,11.76,1.61,7.37,6.16
123319,153,11.76,1.69,7.3,3.53
123322,153,11.76,1.14,6.39,5.14
123326,153,11.76,1.45,4.67,7.02
123330,153,11.76,1.37,5.26,6.32
123334,153,11.76,0.94,6.35,7.02
123338,153,11.76,0.82,2.86,10.24
123342,153,11.76,0.31,3.57,9.49
123345,153,11.76,1.45,5.22,8.87
123350,153,11.76,1.8,7.18,6.98
123354,153,11.76,3.18,7.14,7.85
123358,153,11.76,2.98,5.69,7.96
123362,153,11.76,3.06,3.57,8.83
123365,153,11.76,2.9,6.71,8.2
123369,153,11.76,2.9,6.16,7.3
123373,153,11.76,3.02,5.88,7.37
123377,169,10.65,2.2,6.12,6.83
123381,169,10.65,2.43,6.71,7.18
123385,169,10.65,2.04,7.37,4.71
123388,169,10.65,2.28,7.06,1.61
123393,169,10.65,2.2,3.06,13.93
123397,169,10.65,2.43,-0.75,27.73
123401,169,10.65,0.86,-2.12,31.34
123405,169,10.65,1.29,1.65,31.85
123409,169,10.65,-1.45,6.83,21.42
123413,169,10.65,-0.08,10.67,12.32
123417,169,10.65,1.65,12.4,6.39
123420,169,10.65,3.26,12.94,2.08
123424,169,10.65,5.06,9.77,7.14
123428,169,10.65,2.75,7.77,8.79
123432,169,10.65,0.78,7.34,8.59
123437,169,10.65,0.27,7.37,4.08
123441,169,10.65,-1.29,6.2,5.73
123444,169,10.65,-0.31,7.61,9.3
123448,169,10.65,0,8,4.08
123452,169,10.65,0.78,6.08,4.31
123456,169,10.65,-0.9,4.16,7.65
123460,169,10.65,-2.24,5.57,7.65
123463,169,10.65,-1.61,2.94,8
123467,169,10.65,-2.08,7.3,7.49
123471,169,10.65,0.43,3.3,10.12
123475,169,10.65,1.06,1.8,12.28
123480,169,10.65,0.47,0.51,10.55
123484,169,10.65,1.45,1.84,12.59
123488,169,10.65,0.24,-0.71,11.81
123491,169,10.65,1.06,2.9,9.3
123495,169,10.65,1.88,2.82,9.26
123499,169,10.65,2.51,4.2,8.24
123503,169,10.65,2.04,4.59,8.2
123507,169,10.65,2.16,5.26,11.18
123511,169,10.65,2.43,5.33,11.77
123514,137,13.14,0.86,5.33,10.08
123518,137,13.14,0.82,3.65,9.18
123523,137,13.14,0.31,3.96,9.22
123527,137,13.14,1.45,6.47,9.92
123531,137,13.14,1.69,5.92,7.45
123535,137,13.14,1.33,4.31,6.16
123538,137,13.14,0.82,5.02,6.47
123542,137,13.14,0.16,4.71,8.32
123546,137,13.14,-0.39,6.16,8.2
123550,137,13.14,-1.26,5.41,14.28
123554,137,13.14,0.35,3.45,12.43
123558,137,13.14,-0.51,5.77,10.59
123563,137,13.14,0.08,5.65,10.28
123566,137,13.14,0.59,4.79,10.24
123570,137,13.14,-0.47,4.82,9.65
123574,137,13.14,-0.39,1.45,10.43
123578,137,13.14,-0.08,6.28,8.67
123582,137,13.14,0.9,5.73,11.38
123586,137,13.14,0.98,5.45,16.48
123590,137,13.14,-0.08,4.12,12.43
123593,137,13.14,0.71,4.63,10.47
123597,137,13.14,1.22,4.98,10.32
123601,137,13.14,1.45,6.9,10.67
123606,137,13.14,1.29,4.82,11.45
123610,137,13.14,1.14,4.63,10.04
123614,137,13.14,1.26,4.94,10.28
123618,137,13.14,1.73,4.71,10.28
123622,137,13.14,1.14,5.26,10.83
123625,137,13.14,0.94,6.24,8.55
123629,137,13.14,0.94,4.82,8.94
123633,137,13.14,0.59,4.35,8.08
123637,137,13.14,0.67,5.77,10.43
123641,137,13.14,0.08,6.86,11.14
123645,137,13.14,0,5.26,13.18
123649,137,13.14,0.78,5.84,11.26
123653,137,13.14,0.51,5.57,9.53
123657,137,13.14,0.63,7.34,6.55
123661,137,13.14,0.51,8.12,5.02
123665,137,13.14,0.35,7.02,4.98
123669,155,11.61,0.39,6.35,4.9
123672,155,11.61,0.35,4.86,3.1
123676,155,11.61,0.43,4.47,2.79
123680,155,11.61,0.78,4.43,5.69
123684,155,11.61,0.24,2.55,5.88
123688,155,11.61,0.27,0.04,7.34
123693,155,11.61,1.96,-0.31,7.92
123696,155,11.61,2.12,2.94,5.49
123700,155,11.61,1.96,12.75,7.1
123704,155,11.61,0.08,12.71,8.67
123708,155,11.61,-0.27,8.36,15.22
123712,155,11.61,0.04,11.22,15.89
123716,155,11.61,2.31,7.14,19.5
123720,155,11.61,2.28,7.53,16.79
123724,155,11.61,1.33,3.96,18.24
123727,155,11.61,1.22,1.84,15.97
123731,155,11.61,1.69,0.24,14.83
123736,155,11.61,-0.71,3.41,8.71
123740,155,11.61,3.14,5.37,6.47
123744,155,11.61,0.24,-2.04,9.26
123748,155,11.61,0.35,-0.51,9.53
123751,155,11.61,0.47,0.82,13.06
123755,155,11.61,0.2,5.61,9.85
123759,155,11.61,-0.27,7.14,10.98
123763,155,11.61,0.04,8.39,10.79
123767,155,11.61,-0.55,7.53,11.77
123771,155,11.61,-1.22,4.2,11.65
123776,155,11.61,-1.29,4.71,10.67
123779,155,11.61,-1.37,2.79,8.87
123783,155,11.61,-1.84,4.63,6.32
123787,155,11.61,-2.39,4.79,2.9
123791,155,11.61,-3.3,6.12,2.79
123795,155,11.61,-2.47,6.98,3.88
123799,155,11.61,-2.04,5.37,5.57
123802,155,11.61,-0.98,4.16,6.32
123806,155,11.61,0.43,5.77,7.61
123810,155,11.61,1.02,5.1,7.61
123814,145,12.41,1.1,5.57,8.32
123819,145,12.41,0.35,5.84,8.24
123823,145,12.41,0.35,5.57,7.88
123826,145,12.41,0.55,4.51,9.77
123830,145,12.41,1.96,6.12,9.3
123834,145,12.41,1.37,5.84,10.55
123838,145,12.41,0.86,5.88,10.63
123842,145,12.41,1.06,6.32,12
123846,145,12.41,0.63,5.3,11.45
123850,145,12.41,1.18,6.9,9.92
123853,145,12.41,1.02,7.69,9.1
123857,145,12.41,0.24,8.16,9.85
123862,145,12.41,1.57,6.35,9.92
123866,145,12.41,2.2,5.92,11.06
123870,145,12.41,2.51,6.67,10.36
123874,145,12.41,2.39,6.94,8.32
123877,145,12.41,2.35,7.53,6.12
123881,145,12.41,2.55,8.08,5.14
123885,145,12.41,2.12,8.36,5.57
123889,145,12.41,2.67,7.96,4.9
123893,145,12.41,2.43,5.92,5.49
123897,145,12.41,2.94,6.55,6.43
123900,145,12.41,2.79,3.22,11.02
123905,145,12.41,3.26,3.77,11.77
123909,145,12.41,2.94,4.86,12
123913,145,12.41,3.45,7.02,11.38
123917,145,12.41,3.92,6.63,15.57
123921,145,12.41,3.61,6.32,14.16
123925,145,12.41,3.1,4.12,13.57
123929,145,12.41,1.53,6.51,6.86
123932,145,12.41,3.18,2.43,11.81
123936,145,12.41,2.75,3.8,6
123940,145,12.41,2.43,5.18,2.16
123944,145,12.41,1.96,6.71,3.3
123949,145,12.41,1.84,5.96,5.18
123952,145,12.41,1.57,0.51,8.28
123956,145,12.41,2.55,-0.31,11.61
123960,145,12.41,2.04,-0.82,14.12
123964,145,12.41,1.57,-1.22,17.38
123968,145,12.41,1.65,0.86,14.71
123972,145,12.41,1.33,5.06,12.67
123976,162,11.11,0.2,4.67,10.9
123980,162,11.11,0.12,3.8,9.77
123983,162,11.11,-0.31,3.53,11.26
123987,162,11.11,-1.1,6.43,9.65
123992,162,11.11,-1.18,4.94,8.16
123996,162,11.11,-0.24,4.67,8.32
124000,162,11.11,-0.98,7.49,9.96
124004,162,11.11,-0.12,7.61,10.4
124007,162,11.11,0.2,7.77,10.2
124011,162,11.11,1.02,8.08,9.38
124015,162,11.11,0.67,6.51,8.2
124019,162,11.11,0.43,10.71,7.77
124023,162,11.11,0.12,7.34,8.83
124027,162,11.11,-0.27,7.26,9.92
124032,162,11.11,0.35,5.1,10.43
124035,162,11.11,0.59,6.94,9.1
124039,162,11.11,0.67,6.63,10.28
124043,162,11.11,0.94,8.28,7.49
124047,162,11.11,1.88,4.31,10.79
124051,162,11.11,1.84,3.77,12.32
124055,162,11.11,1.29,4.86,10.9
124059,162,11.11,2.12,7.18,10.2
124062,162,11.11,2.04,7.96,10.47
124066,162,11.11,2.35,6.98,11.45
124070,162,11.11,2.98,3.96,9.18
124075,162,11.11,3.53,6.55,9.26
124079,162,11.11,2.98,4.2,10.24
124083,162,11.11,3.18,4.67,9.77
124087,162,11.11,3.45,3.37,9.18
124090,162,11.11,2.43,5.22,7.3
124094,162,11.11,1.84,4.43,9.85
124098,162,11.11,2.51,5.06,9.57
124102,162,11.11,1.88,4.94,12.94
124106,130,13.85,2.16,4.59,10.98
124110,130,13.85,1.77,7.45,14.12
124113,130,13.85,1.65,3.1,14.04
124118,130,13.85,1.69,5.45,9.85
124122,130,13.85,2.28,6.28,8.87
124126,130,13.85,1.49,8.12,6.9
124130,130,13.85,0.63,8.87,7.85
124134,130,13.85,-0.16,8.9,8.16
124137,130,13.85,0.63,8.16,7.53
124141,130,13.85,1.29,8.24,7.57
124145,130,13.85,1.37,7.81,7.65
124149,130,13.85,1.29,6.43,8.9
124153,130,13.85,1.49,7.02,8.9
124157,130,13.85,1.77,4.39,10.04
124161,130,13.85,2.24,6.2,9.18
124165,130,13.85,1.26,5.69,8
124169,130,13.85,0.51,7.88,8.63
124173,130,13.85,0.78,5.69,8.2
124177,130,13.85,1.22,5.73,9.02
124181,130,13.85,1.29,6,9.45
124184,130,13.85,0.78,3.45,8.75
124188,130,13.85,1.26,4.24,7.69
124192,130,13.85,1.33,3.26,7.34
124196,130,13.85,0.98,4.82,8.36
124200,130,13.85,1.33,6.16,6.35
124204,130,13.85,2.43,6.79,6.63
124208,130,13.85,1.69,6.43,10.36
124212,130,13.85,1.96,3.61,6.98
124216,130,13.85,2.55,6.28,6.79
124220,130,13.85,1.57,5.61,7.57
124224,130,13.85,1.65,3.53,8.67
124227,130,13.85,1.69,4.75,9.61
124231,130,13.85,0.98,2.9,14.24
124235,130,13.85,0.24,0,14.98
124239,130,13.85,0.98,0.39,16.99
124243,130,13.85,1.45,1.33,13.57
124248,130,13.85,0.86,5.33,11.02
124252,146,12.33,0.63,8.39,7.26
124255,146,12.33,0.35,8.2,4.51
124259,146,12.33,0.39,7.18,7.37
124263,146,12.33,0.27,5.3,10.36
124267,146,12.33,0.35,5.77,10.24
124271,146,12.33,1.69,5.81,11.06
124275,146,12.33,1.57,5.65,12.67
124279,146,12.33,1.26,4.28,10.08
124282,146,12.33,1.22,4.24,8.79
124286,146,12.33,1.18,4.63,9.81
124291,146,12.33,1.65,4.86,9.02
124295,146,12.33,0.78,5.45,8.08
124299,146,12.33,0.59,5.96,10.24
124303,146,12.33,0.86,3.53,11.89
124306,146,12.33,1.14,4.08,12.87
124310,146,12.33,0.43,4.2,11.81
124314,146,12.33,0.24,6.51,10.83
124318,146,12.33,0.43,7.61,9.22
124322,146,12.33,1.41,6.24,8.51
124326,146,12.33,1.73,5.3,6.51
124331,146,12.33,1.41,5.61,8.98
124334,146,12.33,1.41,5.81,10.16
124338,146,12.33,1.45,4.75,10.32
124342,146,12.33,2.12,5.22,9.45
124346,146,12.33,1.8,4.47,10.55
124350,146,12.33,1.45,5.45,8.71
124354,146,12.33,1.49,4.86,7.77
124358,146,12.33,1.41,5.77,7.69
124361,146,12.33,1.57,5.57,7.41
124365,146,12.33,0.86,5.65,9.85
124369,146,12.33,1.02,5.3,10.59
124374,146,12.33,1.26,5.22,12.47
124378,146,12.33,0.82,3.92,9.69
124382,146,12.33,1.14,5.53,10.63
124385,133,13.53,1.26,5.53,10.51
124389,133,13.53,1.57,5.37,8.55
124393,133,13.53,2.2,4.71,10.94
124397,133,13.53,2.59,3.22,9.41
124401,133,13.53,2.47,5.88,10.67
124405,133,13.53,1.88,6.9,8.75
124409,133,13.53,2,5.61,8.94
124412,133,13.53,2.43,3.26,12.04
124417,133,13.53,1.61,3.45,12.2
124421,133,13.53,1.22,2.2,10.51
124425,133,13.53,1.57,4.16,9.1
124429,133,13.53,2.04,4.04,8.39
124433,133,13.53,2.82,4,9.34
124436,133,13.53,2.28,2.51,8.67
124440,133,13.53,2.12,3.73,8.24
124444,133,13.53,2.12,4.51,7.37
124448,133,13.53,2.47,4.82,8.79
124452,133,13.53,3.14,7.57,8.51
124456,133,13.53,2.63,5.41,7.88
124460,133,13.53,2.47,4.79,9.96
124464,133,13.53,3.02,2.04,9.3
124468,133,13.53,2.75,1.77,7.14
124472,133,13.53,2.43,5.41,3.49
124476,133,13.53,1.92,5.1,8.83
124480,133,13.53,2.75,1.77,18.36
124483,133,13.53,2.12,2.24,20.48
124487,133,13.53,1.61,4.75,18.2
124491,133,13.53,0.63,3.96,19.93
124495,133,13.53,1.84,6.08,16.83
124499,133,13.53,1.73,8.24,12.87
124504,133,13.53,1.06,11.73,6.04
124508,133,13.53,0.43,10.12,5.02
124512,133,13.53,1.02,6.71,7.02
124515,133,13.53,1.06,5.77,6.79
124519,133,13.53,1.57,6.04,6.51
124523,133,13.53,1.73,8.9,2.75
124527,133,13.53,1.73,8.83,3.57
124531,133,13.53,1.61,7.3,3.77
124534,133,13.53,1.65,4.98,5.88
124538,133,13.53,0.59,5.77,8.51
124542,157,11.46,-0.51,5.61,10.24
124547,157,11.46,-0.55,7.18,11.26
124551,157,11.46,-0.12,5.73,12.04
124555,157,11.46,-0.2,5.33,11.26
124559,157,11.46,0.98,6.16,11.96
124563,157,11.46,1.65,4.08,9.69
124566,157,11.46,1.06,5.73,9.1
124570,157,11.46,1.61,3.88,9.18
124574,157,11.46,1.02,5.26,8.79
124578,157,11.46,0.43,5.45,9.26
124582,157,11.46,1.1,5.65,7.37
124585,157,11.46,-0.55,4.16,9.34
124590,157,11.46,2.35,3.61,7.85
124594,157,11.46,1.77,5.37,11.77
124598,157,11.46,1.57,4.82,9.61
124602,157,11.46,1.84,4.71,10.16
124606,157,11.46,1.29,4.39,10.08
124610,157,11.46,1.96,3.61,7.88
124613,157,11.46,1.88,3.37,6.79
124617,157,11.46,2.28,3.3,6.47
124621,157,11.46,2.47,3.14,7.65
124625,157,11.46,3.22,4.82,8.24
124630,157,11.46,3.37,3.06,8.98
124633,157,11.46,2.59,1.96,11.38
124637,157,11.46,1.84,3.33,11.92
124641,157,11.46,1.02,6.12,12.75
124645,157,11.46,1.1,5.06,11.18
124649,157,11.46,0.75,6.63,9.96
124653,157,11.46,0.35,5.92,11.81
124657,157,11.46,0.78,3.96,11.57
124661,157,11.46,0.75,4.39,10.08
124664,157,11.46,0.43,6.94,11.85
124668,126,14.29,0.43,4.51,11.41
124673,126,14.29,0.08,3.37,11.06
124677,126,14.29,0.59,2.86,10.67
124681,126,14.29,0.63,3.73,10.43
124685,126,14.29,0.75,6.35,10.08
124689,126,14.29,0.31,9.06,5.81
124692,126,14.29,0.43,7.65,6
124696,126,14.29,0.86,8.39,7.22
124700,126,14.29,0.12,8.55,7.18
124704,126,14.29,0.2,7.88,10.63
124708,126,14.29,0.35,5.06,11.53
124712,126,14.29,0.75,3.77,10.08
124717,126,14.29,0.35,4.86,8.71
124720,126,14.29,0.78,5.14,8.98
124724,126,14.29,0.59,6.04,8.79
124728,126,14.29,0.27,6.71,7.06
124732,126,14.29,0,8.16,6.71
124736,126,14.29,0.16,5.73,7.81
124739,126,14.29,0.75,5.22,8.75
124743,126,14.29,0.82,4.16,9.45
124747,126,14.29,1.06,6.08,9.65
124751,126,14.29,1.65,4.39,9.38
124755,126,14.29,0.98,4.82,8.47
124760,126,14.29,1.96,5.92,5.53
124763,126,14.29,0.86,9.85,2.47
124767,126,14.29,0.67,11.06,3.61
124771,126,14.29,0.43,8.47,3.88
124775,126,14.29,1.22,6,8.24
124779,126,14.29,0.75,8.63,11.06
124783,126,14.29,1.88,5.84,13.06
124786,126,14.29,2.31,0.47,16.51
124790,126,14.29,1.69,-0.04,16.28
124794,126,14.29,1.02,2.12,13.3
124798,126,14.29,0.78,-0.39,12.4
124803,126,14.29,0.86,2.08,15.77
124807,139,12.95,1.53,2.47,9.06
124811,139,12.95,1.53,3.77,10.32
124815,139,12.95,1.57,5.3,11.34
124818,139,12.95,0.71,6.04,9.49
124822,139,12.95,0,9.26,6.75
124826,139,12.95,-0.94,7.18,7.49
124830,139,12.95,-1.26,7.45,7.65
124834,139,12.95,-0.43,4.79,10.55
124838,139,12.95,-0.75,3.61,10.59
124841,139,12.95,-0.82,5.69,10.2
124846,139,12.95,-0.08,4.63,8.63
124850,139,12.95,-0.39,4.55,8.79
124854,139,12.95,0.67,4.59,10.24
124858,139,12.95,-0.39,4.24,9.96
124862,139,12.95,0.67,5.14,11.85
124866,139,12.95,0.71,5.84,11.34
124869,139,12.95,0.43,7.57,11.02
124873,139,12.95,0.55,8.04,10.4
124877,139,12.95,1.26,6.94,12.51
124881,139,12.95,1.8,7.65,9.73
124886,139,12.95,1.57,5.96,5.14
124890,139,12.95,1.33,6.12,6.32
124893,139,12.95,1.06,6.94,4.2
124897,139,12.95,0.24,5.61,6.9
124901,139,12.95,0.94,2.82,8.55
124905,139,12.95,0.82,5.18,9.61
124909,139,12.95,2.08,4.35,10.2
124913,139,12.95,2.2,6.39,11.61
124916,139,12.95,1.61,7.22,11.96
124920,139,12.95,1.37,5.77,10.83
124924,139,12.95,1.29,9.18,11.22
124929,139,12.95,1.8,7.73,7.92
124933,139,12.95,1.84,8.2,7.18
124937,130,13.85,1.22,7.3,7.85
124941,130,13.85,0.9,7.26,7.41
124944,130,13.85,0.86,6.28,8.51
124948,130,13.85,2.67,4.28,8.71
124952,130,13.85,0.78,2,7.3
124956,130,13.85,0.24,4.55,8.55
124960,130,13.85,-0.2,3.73,9.77
124964,130,13.85,0.16,4.35,12.08
124967,130,13.85,0.43,5.06,13.14
124972,130,13.85,0.31,4.28,10
124976,130,13.85,1.53,3.57,8.75
124980,130,13.85,0.71,4.28,9.38
124984,130,13.85,0.71,2.79,11.34
124988,130,13.85,1.73,4,11.49
124992,130,13.85,1.45,5.41,9.73
124995,130,13.85,0.94,6.24,5.73
124999,130,13.85,-0.55,4.16,8.28
125003,130,13.85,0.98,5.45,9.73
125007,130,13.85,1.18,4.24,8.55
125011,130,13.85,0.51,5.45,9.14
125015,130,13.85,0.16,5.49,10.16
125019,130,13.85,0.31,4.39,10.51
125023,130,13.85,0.71,4.71,8.63
125027,130,13.85,0.16,5.33,9.14
125031,130,13.85,-0.2,4.24,8.98
125035,130,13.85,0.78,4.39,9.34
125039,130,13.85,0.59,2.86,9.85
125042,130,13.85,0.63,4.79,8.71
125046,130,13.85,0.24,3.53,7.61
125050,130,13.85,0.55,6.28,6.04
125054,130,13.85,0.98,5.65,6.59
125059,130,13.85,-0.35,5.61,7.65
125062,130,13.85,0.78,5.22,9.14
125066,130,13.85,0.67,4.67,11.73
125070,130,13.85,0.75,5.18,11.3
125074,130,13.85,0.94,4.94,13.81
125078,130,13.85,0.98,6,13.02
125082,145,12.41,0.2,6.35,14.47
125086,145,12.41,1.18,4.75,15.14
125090,145,12.41,1.73,5.33,13.02
125093,145,12.41,2.35,4.31,11.61
125097,145,12.41,2.24,6.2,10.9
125102,145,12.41,1.77,7.65,10.63
125106,145,12.41,1.37,6.2,10.32
125110,145,12.41,1.14,3.37,10.94
125114,145,12.41,1.45,3.53,8.39
125118,145,12.41,1.18,2.04,7.02
125121,145,12.41,0.63,4.16,8.71
125125,145,12.41,0.31,6.47,6.55
125129,145,12.41,-0.08,6.71,6.12
125133,145,12.41,0.16,6.83,8.28
125137,145,12.41,0.35,6.9,9.92
125142,145,12.41,0.16,5.96,11.14
125145,145,12.41,1.29,2.24,13.61
125149,145,12.41,1.92,5.65,10.67
125153,145,12.41,1.65,3.22,9.92
125157,145,12.41,1.77,4.08,6.79
125161,145,12.41,2.31,3.26,8.2
125165,145,12.41,3.06,2.28,7.18
125168,145,12.41,2,2.2,8.87
125172,145,12.41,2.04,2.43,8.08
125176,145,12.41,1.65,3.96,7.65
125180,145,12.41,1.33,5.37,7.61
125185,145,12.41,1.45,3.65,7.88
125189,145,12.41,1.22,7.06,9.53
125192,145,12.41,1.45,7.37,10
125196,145,12.41,0.67,4.75,10.24
125200,145,12.41,1.69,4.79,10.63
125204,122,14.75,1.57,2.51,9.45
125208,122,14.75,2.28,7.88,7.65
125212,122,14.75,2,5.37,5.77
125215,122,14.75,1.33,5.45,3.3
125219,122,14.75,1.57,4.94,1.37
125223,122,14.75,1.57,5.53,-0.47
125228,122,14.75,1.45,2.47,5.69
125232,122,14.75,0.98,0.24,14.63
125236,122,14.75,2.04,0.78,21.73
125239,122,14.75,2.24,-1.61,28.71
125243,122,14.75,2.9,1.61,27.07
125247,122,14.75,3.02,7.34,18.44
125251,122,14.75,1.53,10.63,9.85
125255,122,14.75,2.04,12.12,7.92
125259,122,14.75,1.22,9.81,9.53
125263,122,14.75,1.14,9.26,10.43
125267,122,14.75,0.35,3.1,11.45
125271,122,14.75,0.35,2.94,9.26
125275,122,14.75,0.31,5.1,7.41
125279,122,14.75,-0.31,4.59,4.79
125283,122,14.75,-0.51,6.24,2.35
125287,122,14.75,0.24,6.94,1.41
125291,122,14.75,-0.24,10.63,1.92
125294,122,14.75,0.86,8.24,7.02
125298,122,14.75,0.9,5.45,7.49
125302,122,14.75,2.31,3.49,12.43
125306,122,14.75,2.31,2.98,12.36
125310,122,14.75,0.63,3.65,10.55
125315,122,14.75,2.2,4.39,4.16
125319,122,14.75,0.82,7.22,3.84
125322,122,14.75,0.98,7.81,2.39
125326,122,14.75,0.16,6.9,4.79
125330,122,14.75,0.12,6.75,6.71
125334,122,14.75,0.27,4,10.71
125338,122,14.75,-0.12,5.81,9.57
125341,137,13.14,0.55,3.53,10.08
125345,137,13.14,0.35,6.83,11.77
125349,137,13.14,1.37,5.41,10.67
125353,137,13.14,1.29,5.14,4.59
125358,137,13.14,0.94,8.55,0.12
125362,137,13.14,-0.51,3.1,19.73
125366,137,13.14,1.26,-0.04,22.2
125369,137,13.14,2.51,-3.22,29.81
125373,137,13.14,3.84,-1.69,35.5
125377,137,13.14,4,4.59,26.75
125381,137,13.14,1.8,7.88,16.48
125385,137,13.14,3.26,4.79,3.18
125389,137,13.14,3.84,6.55,12.12
125393,137,13.14,-0.59,6.47,12.36
125398,137,13.14,-1.53,8.16,10.63
125401,137,13.14,-0.78,6.51,7.69
125405,137,13.14,1.61,7.26,3.41
125409,137,13.14,1.49,8.63,6.47
125413,137,13.14,1.49,7.69,6.75
125417,137,13.14,-1.02,6.2,5.41
125421,137,13.14,-0.27,4.24,5.69
125424,137,13.14,1.18,8.67,2.2
125428,137,13.14,1.65,5.88,7.81
125432,137,13.14,0.31,5.73,12.24
125436,137,13.14,2.2,1.1,14.63
125441,137,13.14,2.59,1.22,14.75
125445,137,13.14,0.67,3.06,14.63
125449,137,13.14,2.24,5.49,6.39
125452,137,13.14,0.12,6,6.55
125456,137,13.14,0.47,6.04,5.53
125460,137,13.14,-0.63,7.69,3.3
125464,123,14.63,0.39,7.57,1.45
125468,123,14.63,0.08,8.87,1.18
125472,123,14.63,-0.55,4.82,5.22
125475,123,14.63,1.22,4.16,6.59
125479,123,14.63,-0.12,1.1,10.87
125484,123,14.63,0.63,0.27,14.04
125488,123,14.63,1.18,-0.94,11.57
125492,123,14.63,-0.16,-2.12,9.53
125496,123,14.63,0.9,3.84,5.45
125499,123,14.63,0.2,10.63,4.75
125503,123,14.63,0.39,9.06,7.41
125507,123,14.63,1.02,12.67,7.73
125511,123,14.63,2.82,15.18,7.85
125515,123,14.63,6.63,7.53,13.22
125519,123,14.63,1.88,8.32,12.55
125523,123,14.63,1.22,4.71,13.93
125527,123,14.63,2.24,3.14,14.75
125531,123,14.63,1.26,2.75,12.28
125535,123,14.63,1.96,1.69,9.89
125539,123,14.63,2.63,2.9,10.32
125543,123,14.63,1.96,3.45,8.08
125547,123,14.63,1.14,5.84,7.3
125551,123,14.63,0.78,3.96,7.45
125554,123,14.63,0.39,3.3,8.47
125558,123,14.63,0.12,7.49,7.92
125562,123,14.63,1.45,7.45,10.47
125566,123,14.63,0.71,7.53,10.16
125571,123,14.63,0.59,5.69,10.9
125575,123,14.63,0.9,3.84,8.87
125578,123,14.63,1.8,8.12,6.28
125582,123,14.63,0.94,4.71,5.84
125586,123,14.63,1.37,5.06,9.1
125590,123,14.63,1.06,4.59,6.2
125594,123,14.63,0.67,2.9,7.73
125598,123,14.63,1.84,5.26,9.45
125601,137,13.14,1.73,4,11.81
125605,137,13.14,1.96,3.92,15.42
125609,137,13.14,1.29,3.14,14.32
125614,137,13.14,0.12,2.47,13.49
125618,137,13.14,0.59,4.71,12.63
125622,137,13.14,0.59,12.16,6.75
125626,137,13.14,0.39,18.04,6.94
125629,137,13.14,-0.27,10.43,7.88
125633,137,13.14,0.59,8.43,9.22
125637,137,13.14,0.67,11.73,7.85
125641,137,13.14,0.75,9.02,8.9
125645,137,13.14,0.98,5.57,10.32
125649,137,13.14,1.65,-1.96,13.69
125654,137,13.14,3.26,1.22,14.36
125658,137,13.14,2.24,-2.31,14.98
125661,137,13.14,1.77,0.31,14.47
125665,137,13.14,1.29,0.16,14.63
125669,137,13.14,1.8,0.78,16.4
125673,137,13.14,0.27,0.43,15.85
125677,137,13.14,0.71,4.79,13.1
125681,137,13.14,1.45,6,12.79
125685,137,13.14,2.24,6.79,11.85
125689,137,13.14,2.08,8.24,8.55
125692,137,13.14,1.65,4.63,11.34
125697,137,13.14,1.45,8.83,5.14
125701,137,13.14,2.31,8.67,5.84
125705,137,13.14,1.88,6.35,5.06
125709,137,13.14,1.96,1.22,6.59
125713,137,13.14,2.47,2.04,6.28
125716,137,13.14,2,1.29,6.9
125720,119,15.13,2,5.81,4.98
125724,119,15.13,1.26,7.14,3.41
125728,119,15.13,0.27,2.55,6.35
125732,119,15.13,0.55,0.86,7.69
125735,119,15.13,0.31,3.02,8.83
125740,119,15.13,0.08,3.14,6.12
125744,119,15.13,0.27,5.57,6.28
125748,119,15.13,0.9,6.94,7.02
125752,119,15.13,1.53,6.94,7.65
125756,119,15.13,1.41,7.22,7.61
125759,119,15.13,0.9,7.3,7.1
125763,119,15.13,0.9,5.18,10.75
125767,119,15.13,1.69,5.3,13.85
125771,119,15.13,1.53,5.33,14.36
125775,119,15.13,2.08,4.28,15.77
125779,119,15.13,1.18,7.02,14.63
125784,119,15.13,1.06,6.55,9.69
125787,119,15.13,0.55,9.49,8.67
125791,119,15.13,1.02,10.98,7.57
125795,119,15.13,1.06,9.65,8.2
125799,119,15.13,0.86,6.12,10.94
125803,119,15.13,-0.04,6.75,11.65
125807,119,15.13,0.9,5.69,11.34
125811,119,15.13,0.98,5.02,9.61
125814,119,15.13,0.9,3.1,8.98
125818,119,15.13,0.35,6.47,7.57
125822,119,15.13,0.67,5.69,7.65
125827,119,15.13,0.98,5.61,10.75
125831,119,15.13,1.14,5.45,11.89
125835,119,15.13,2.04,6.94,9.34
125838,119,15.13,1.45,6.16,11.02
125842,119,15.13,0.86,4.79,12.24
125846,119,15.13,0.12,5.06,10.12
125850,119,15.13,-0.04,7.1,6.67
125854,134,13.43,0.35,6.04,8.39
125858,134,13.43,0.86,4.63,8.39
125861,134,13.43,0.86,4.9,8.59
125865,134,13.43,1.14,4.43,9.41
125870,134,13.43,0.63,4.67,7.3
125874,134,13.43,1.84,4.2,12.91
125878,134,13.43,1.14,4.04,13.45
125882,134,13.43,1.96,2,13.42
125886,134,13.43,2.28,5.96,7.3
125889,134,13.43,2.67,5.22,7.18
125893,134,13.43,2.2,4.16,9.06
125897,134,13.43,2.39,4.86,9.49
125901,134,13.43,2.24,2.55,8.59
125905,134,13.43,1.84,5.81,8.75
125908,134,13.43,1.37,5.45,8.39
125913,134,13.43,0.55,7.3,9.41
125917,134,13.43,0.31,7.3,6.47
125921,134,13.43,0.12,6.12,7.73
125925,134,13.43,1.06,3.3,5.77
125929,134,13.43,0.16,6.47,9.61
125932,134,13.43,0.86,3.84,12.75
125936,134,13.43,1.73,4.75,12.32
125940,134,13.43,2.12,3.1,12.94
125944,134,13.43,1.88,3.41,10.16
125948,134,13.43,0.04,5.02,9.41
125953,134,13.43,0.27,2.08,7.06
125957,134,13.43,0.82,4.28,5.37
125960,134,13.43,0.94,3.1,8.51
125964,134,13.43,1.8,3.02,12.04
125968,134,13.43,0.47,4.2,12.51
125972,134,13.43,1.33,2.08,10.59
125976,122,14.75,0.27,4.39,10.43
125980,122,14.75,-0.16,4.86,8.2
125983,122,14.75,0.27,5.02,7.73
125987,122,14.75,1.26,5.61,8.43
125991,122,14.75,0.67,4.59,9.69
125996,122,14.75,0.2,4.71,9.69
126000,122,14.75,1.14,3.53,9.77
126004,122,14.75,0.51,4.71,10.63
126007,122,14.75,0.63,5.49,7.41
126011,122,14.75,0.35,6.35,6.94
126015,122,14.75,0.39,8.51,5.06
126019,122,14.75,0.55,6.63,6.35
126023,122,14.75,0.59,7.61,7.49
126027,122,14.75,0.04,8.98,7.73
126030,122,14.75,-1.26,9.02,7.41
126034,122,14.75,0.43,8.98,10.04
126039,122,14.75,0.08,7.57,10.16
126043,122,14.75,-0.08,11.89,10.55
126047,122,14.75,0.24,6.79,10.28
126051,122,14.75,-0.71,7.85,12.59
126055,122,14.75,-0.43,6.08,13.34
126058,122,14.75,-0.82,5.96,10.59
126062,122,14.75,1.14,6.24,8.08
126066,122,14.75,1.49,7.57,5.45
126070,122,14.75,2.39,4.82,6.08
126074,122,14.75,2.04,6.35,5.61
126078,122,14.75,0.94,3.14,11.69
126083,122,14.75,2.04,3.37,10.16
126086,122,14.75,1.18,7.3,9.73
126090,122,14.75,2.08,4.63,11.06
126094,122,14.75,1.1,3.69,12.16
126098,122,14.75,0.82,5.14,7.65
126102,122,14.75,1.45,5.88,8.32
126106,122,14.75,0.82,3.96,10.36
126109,134,13.43,1.06,2.28,12
126113,134,13.43,0.71,-0.24,12.71
126117,134,13.43,1.49,-1.73,11.73
126121,134,13.43,1.57,2.04,7.02
126126,134,13.43,2.12,5.26,7.02
126130,134,13.43,1.37,6.04,6.98
126134,134,13.43,1.49,5.81,8.55
126137,134,13.43,1.65,4.2,8.47
126141,134,13.43,1.06,3.33,9.14
126145,134,13.43,1.33,4.12,11.92
126149,134,13.43,1.02,2.51,12.32
126153,134,13.43,1.84,3.84,12.71
126157,134,13.43,1.77,4.12,10.04
126161,134,13.43,1.26,4.98,7.88
126164,134,13.43,1.06,6.79,7.18
126169,134,13.43,0.55,5.53,6.94
126173,134,13.43,0.82,4.71,6.94
126177,134,13.43,-0.24,3.37,7.81
126181,134,13.43,0.08,1.77,8.98
126185,134,13.43,0.31,5.1,9.02
126188,134,13.43,0.47,5.49,11.45
126192,134,13.43,1.69,6,13.65
126196,134,13.43,0.27,5.22,10.75
126200,134,13.43,0.51,4.82,11.96
126204,134,13.43,0.08,7.06,10.43
126209,134,13.43,1.14,9.14,9.57
126213,134,13.43,1.06,8.75,6.86
126216,134,13.43,1.37,6.59,10.94
126220,134,13.43,1.37,6.98,11.34
126224,134,13.43,0.78,6.47,10.59
126228,118,15.25,0.98,7.77,9.34
126232,118,15.25,0.78,6.98,11.69
126236,118,15.25,0.82,5.69,8.39
126239,118,15.25,1.77,7.1,7.49
126243,118,15.25,0.75,8.32,5.84
126247,118,15.25,0.94,8.08,5.69
126252,118,15.25,2.08,8.51,5.81
126256,118,15.25,1.84,7.26,7.3
126260,118,15.25,2.12,3.84,9.81
126263,118,15.25,1.65,5.02,10.9
126267,118,15.25,1.88,4.28,11.22
126271,118,15.25,1.77,3.18,8.67
126275,118,15.25,1.26,3.57,8.55
126279,118,15.25,1.61,6.39,8.83
126283,118,15.25,1.37,4.35,8.71
126286,118,15.25,1.53,5.41,8.47
126290,118,15.25,1.02,4.16,9.57
126295,118,15.25,1.26,4.51,11.77
126299,118,15.25,0.24,4.79,9.85
126303,118,15.25,0.39,4.51,9.77
126307,118,15.25,0.71,3.65,10.75
126311,118,15.25,0.43,5.69,6.55
126314,118,15.25,1.57,6.08,5.41
126318,118,15.25,0.98,4.35,8.32
126322,118,15.25,0.9,3.61,9.61
126326,118,15.25,0.86,0.86,8.75
126330,118,15.25,0.47,3.3,10.43
126333,118,15.25,-0.16,2.98,10.47
126338,118,15.25,-0.47,6.39,7.88
126342,118,15.25,-0.16,5.49,7.73
126346,118,15.25,0.12,3.45,7.02
126350,122,14.75,0.04,4.43,10.36
126354,122,14.75,-0.35,1.61,12.4
126358,122,14.75,-0.35,0.43,14.12
126361,122,14.75,-0.78,2.04,15.06
126365,122,14.75,-0.04,3.06,16.59
126369,122,14.75,-1.18,3.33,13.34
126373,122,14.75,-0.24,4.98,11.92
126377,122,14.75,-0.12,4.12,11.77
126382,122,14.75,-0.78,6.75,11.45
126386,122,14.75,0.71,4.24,11.96
126390,122,14.75,0.08,4.67,10.98
126393,122,14.75,-0.27,4.28,10.2
126397,122,14.75,-0.31,5.14,9.53
126401,122,14.75,-0.59,5.18,7.85
126405,122,14.75,-0.82,6.04,7.65
126409,122,14.75,-0.71,7.3,8.24
126413,122,14.75,-1.06,7.85,7.02
126416,122,14.75,-0.16,5.96,7.88
126420,122,14.75,-0.16,5.14,9.26
126425,122,14.75,-0.12,7.77,10.51
126429,122,14.75,-0.04,6.86,10.9
126433,122,14.75,1.29,6.67,8.94
126437,122,14.75,1.53,7.18,7.26
126440,122,14.75,1.26,8.28,5.57
126444,122,14.75,1.53,8.9,6.24
126448,122,14.75,1.61,6.86,6.43
126452,122,14.75,1.88,8.16,5.22
126456,122,14.75,1.45,6.71,7.26
126460,122,14.75,2.31,5.49,7.41
126464,122,14.75,3.3,5.14,10.47
126468,122,14.75,2.2,3.77,10.87
126472,122,14.75,2.04,4.79,11.26
126476,122,14.75,2.08,4.12,11.38
126480,122,14.75,3.1,4.82,11.22
126484,122,14.75,2.51,3.69,10.51
126488,122,14.75,1.57,4.71,12.08
126492,122,14.75,2.43,4.79,10.55
126495,122,14.75,2.9,1.88,11.81
126499,122,14.75,2.51,3.88,10.4
126503,122,14.75,2.63,3.49,10.83
126508,122,14.75,1.65,2.35,11.77
126512,122,14.75,1.73,2.71,13.53
126516,122,14.75,2.04,1.84,12.71
126520,122,14.75,1.8,2.82,9.53
126524,122,14.75,1.45,4.9,8.24
126527,122,14.75,0.82,5.06,8.43
126531,122,14.75,1.41,6.75,7.22
126535,122,14.75,1.61,6,7.69
126539,122,14.75,0.47,4.9,10
126543,122,14.75,0.9,5.69,10.08
126546,122,14.75,1.14,4,10.59
126551,122,14.75,2.59,4.63,12.55
126555,122,14.75,1.57,4.67,11.26
126559,122,14.75,1.06,5.26,8.94
126563,122,14.75,1.61,3.1,9.85
126567,122,14.75,1.65,6.75,9.85
126571,122,14.75,2.55,3.65,10.98
126574,122,14.75,2.31,6.28,12.12
126578,122,14.75,1.88,4.28,11.89
126582,122,14.75,1.73,4.12,9.53
126586,122,14.75,0.9,4.63,11.1
126590,122,14.75,1.69,5.14,7.81
126595,122,14.75,1.41,8.9,5.92
126599,122,14.75,0.39,8,3.77
126602,130,13.85,-0.08,7.22,7.1
126606,130,13.85,0.82,6,7.53
126610,130,13.85,0.59,8.39,6.63
126614,130,13.85,1.14,7.57,7.3
126618,130,13.85,1.1,7.37,9.96
126621,130,13.85,1.06,6.71,9.96
126625,130,13.85,1.14,7.53,7.61
126629,130,13.85,1.41,6.32,12.16
126633,130,13.85,2.67,6.2,12.28
126638,130,13.85,3.49,6.12,12.47
126642,130,13.85,3.92,7.14,12.67
126646,130,13.85,3.77,6.79,10.98
126649,130,13.85,3.06,7.14,9.96
126653,130,13.85,3.57,7.69,8.2
126657,130,13.85,1.61,6.63,6.28
126661,130,13.85,1.29,5.37,5.92
126665,130,13.85,1.45,6.75,7.02
126669,130,13.85,1.06,5.37,9.22
126672,130,13.85,1.41,3.88,10.87
126676,130,13.85,0.67,4.47,11.26
126681,130,13.85,1.18,5.49,9.45
126685,130,13.85,0.71,4.59,7.96
126689,130,13.85,1.45,4.98,5.53
126693,130,13.85,1.73,2.94,6.75
126696,130,13.85,1.8,3.26,7.85
126700,130,13.85,1.14,4.28,8.12
126704,130,13.85,1.22,1.26,11.57
126708,130,13.85,1.92,2.51,14.2
126712,110,16.36,1.65,3.65,10.87
126716,110,16.36,1.41,6.39,10.32
126721,110,16.36,1.45,6.86,9.73
126724,110,16.36,1.33,6.67,7.41
126728,110,16.36,1.26,7.65,5.26
126732,110,16.36,0.55,4.9,8.32
126736,110,16.36,0.9,4.24,10.55
126740,110,16.36,0.35,5.61,9.14
126744,110,16.36,1.53,5.41,10.83
126747,110,16.36,1.29,6.79,7.69
126751,110,16.36,1.14,5.84,5.65
126755,110,16.36,1.02,5.02,7.1
126759,110,16.36,0.98,2.86,8.9
126764,110,16.36,2.2,7.18,6.24
126768,110,16.36,2.08,7.81,7.85
126771,110,16.36,2.51,4.94,12.4
126775,110,16.36,1.37,5.02,8.63
126779,110,16.36,0.75,5.02,8.71
126783,110,16.36,0.24,6.9,7.3
126787,110,16.36,0.98,5.26,9.02
126791,110,16.36,0.94,2.82,8.98
126794,110,16.36,0.82,6.08,11.41
126798,110,16.36,1.45,4.24,13.3
126802,110,16.36,2.51,5.81,8.87
126807,110,16.36,1.41,4.79,9.22
126811,110,16.36,0.98,7.57,9.85
126815,110,16.36,1.41,9.3,9.18
126818,110,16.36,1.92,7.18,8.94
126822,110,16.36,1.88,7.53,9.92
126826,110,16.36,1.8,4.86,8.87
126830,110,16.36,2.39,3.22,10.04
126834,110,16.36,1.8,5.22,9.18
126838,126,14.29,2.08,4.98,10.87
126841,126,14.29,2.51,5.53,10.71
126845,126,14.29,1.14,4.04,12.83
126850,126,14.29,2.04,6.32,13.02
126854,126,14.29,1.02,6.16,13.57
126858,126,14.29,2.04,7.34,11.26
126862,126,14.29,1.96,6.79,10.9
126866,126,14.29,2.08,8.43,7.96
126870,126,14.29,0.78,7.49,6.24
126873,126,14.29,0.16,8.9,5.06
126877,126,14.29,1.61,9.96,4.71
126881,126,14.29,0.55,7.61,7.1
126885,126,14.29,0.24,5.61,10.28
126889,126,14.29,0.86,2.12,11.3
126894,126,14.29,1.53,-0.98,13.26
126897,126,14.29,1.73,5.77,9.89
126901,126,14.29,1.06,5.22,11.53
126905,126,14.29,1.61,7.41,9.38
126909,126,14.29,1.41,5.69,11.92
126913,126,14.29,1.45,6.12,8.39
126917,126,14.29,1.49,2.71,10.4
126921,126,14.29,0.94,6.71,9.14
126924,126,14.29,1.61,6.79,8
126928,126,14.29,1.29,5.96,4.67
126932,126,14.29,0.31,3.33,12.87
126937,126,14.29,0,1.33,13.49
126941,126,14.29,0.9,5.41,9.18
126945,126,14.29,0.04,4.43,11.92
126948,126,14.29,0.12,7.65,7.88
126952,114,15.79,-0.16,7.69,10.24
126956,114,15.79,1.57,8.87,10.16
126960,114,15.79,1.37,5.1,11.85
126964,114,15.79,0.75,5.92,10.2
126968,114,15.79,0.63,2.51,13.61
126972,114,15.79,0.98,5.41,12.98
126976,114,15.79,1.77,1.96,12.24
126980,114,15.79,1.84,5.65,10.04
126984,114,15.79,1.14,3.92,6.51
126988,114,15.79,1.61,4.12,5.69
126992,114,15.79,2.16,5.92,6.12
126996,114,15.79,1.53,4.67,8.67
127000,114,15.79,1.33,5.06,10.63
127003,114,15.79,1.49,4.94,10.2
127007,114,15.79,1.84,5.84,10.04
127011,114,15.79,1.73,5.96,9.69
127015,114,15.79,2.31,1.92,12.51
127020,114,15.79,3.14,5.57,8.2
127024,114,15.79,2.67,3.92,10.79
127028,114,15.79,2.35,5.41,10.75
127031,114,15.79,2.71,4.43,9.77
127035,114,15.79,2.51,5.02,9.49
127039,114,15.79,2.9,7.77,11.22
127043,114,15.79,2.9,9.73,11.57
127047,114,15.79,2.86,6.24,11.06
127051,114,15.79,3.49,6.86,10.51
127055,114,15.79,3.18,5.26,10.08
127059,114,15.79,1.92,6.9,9.57
127063,114,15.79,2.04,8,8.47
127067,114,15.79,1.45,5.3,8.51
127071,114,15.79,1.41,4.31,8
127075,114,15.79,2.04,4.31,8.2
127079,114,15.79,1.84,5.18,7.53
127082,130,13.85,1.8,5.02,7.92
127086,130,13.85,0.43,4.82,11.18
127090,130,13.85,-0.24,5.41,11.57
127094,130,13.85,0.2,3.06,11.77
127098,130,13.85,1.02,2.71,15.06
127102,130,13.85,1.57,2.79,10.59
127107,130,13.85,1.73,1.02,10.47
127110,130,13.85,1.57,2.51,9.14
127114,130,13.85,0.12,3.37,9.85
127118,130,13.85,0.24,2.12,9.02
127122,130,13.85,0.2,4.9,9.81
127126,130,13.85,1.41,2.16,9.02
127130,130,13.85,2.12,4.63,10.04
127133,130,13.85,1.65,6.59,8.71
127137,130,13.85,1.22,7.45,7.26
127141,130,13.85,1.49,7.34,6.39
127145,130,13.85,0.82,5.96,4.9
127150,130,13.85,0.63,6.71,5.61
127154,130,13.85,0.75,4.59,8.16
127157,130,13.85,1.26,5.41,6.16
127161,130,13.85,2.9,0.51,5.22
127165,130,13.85,2.24,6.24,3.88
127169,130,13.85,2.47,2.59,11.26
127173,130,13.85,0.78,2.24,17.18
127177,130,13.85,1.96,2.71,20.12
127181,130,13.85,0.94,3.49,17.57
127184,130,13.85,1.45,9.53,12.75
127188,106,16.98,0.39,8.36,9.85
127193,106,16.98,1.77,10.28,7.34
127197,106,16.98,2.24,7.53,6.28
127201,106,16.98,2.04,6.43,8.51
127205,106,16.98,2.04,3.61,10.24
127208,106,16.98,2.04,2.12,6.79
127212,106,16.98,1.57,4.67,8.12
127216,106,16.98,2.08,4.51,8.28
127220,106,16.98,1.65,5.33,6
127224,106,16.98,1.8,5.18,6.98
127228,106,16.98,0.86,7.18,5.26
127232,106,16.98,1.02,7.18,5.14
127236,106,16.98,1.18,6.35,7.22
127240,106,16.98,0.2,6,9.69
127244,106,16.98,0,3.88,14.08
127248,106,16.98,1.26,3.8,13.14
127251,106,16.98,1.06,4.43,13.89
127255,106,16.98,1.92,1.69,15.65
127259,106,16.98,-0.04,6.28,11.22
127263,106,16.98,-0.08,9.34,7.85
127267,106,16.98,-1.33,10.28,9.06
127271,106,16.98,0.2,11.1,8.94
127276,106,16.98,0.86,8.59,9.81
127279,106,16.98,1.33,9.1,12.63
127283,106,16.98,2.35,6.35,16
127287,106,16.98,2.04,7.53,15.3
127291,106,16.98,1.37,2.16,15.38
127295,106,16.98,1.1,5.61,10.87
127299,106,16.98,0.2,6.43,7.02
127303,106,16.98,1.1,6.59,6.47
127306,118,15.25,1.69,8.32,6.71
127310,118,15.25,2.16,6.71,3.73
127314,118,15.25,1.61,7.1,8.2
127319,118,15.25,2.24,6,10.16
127323,118,15.25,1.1,5.33,8.32
127327,118,15.25,0.78,7.14,9.22
127331,118,15.25,0.31,2.67,12.75
127334,118,15.25,0.67,1.06,8.67
127338,118,15.25,0.39,4.28,7.34
127342,118,15.25,-0.67,8.43,4.82
127346,118,15.25,0.55,4.35,5.65
127350,118,15.25,-0.2,2.9,7.37
127354,118,15.25,0.24,1.41,8.94
127357,118,15.25,-0.12,2.04,11.26
127362,118,15.25,0.59,0.24,11.34
127366,118,15.25,0.35,2.28,10.79
127370,118,15.25,1.29,4.94,11.69
127374,118,15.25,0.27,3.33,12
127378,118,15.25,1.45,5.57,14.44
127382,118,15.25,0.35,5.65,13.26
127385,118,15.25,1.49,6.24,12.79
127389,118,15.25,1.45,3.26,9.73
127393,118,15.25,2.28,2.86,9.02
127397,118,15.25,1.8,4.04,5.96
127401,118,15.25,1.73,2,7.22
127406,118,15.25,0.51,5.57,6.2
127409,118,15.25,0.78,8.71,8.24
127413,118,15.25,1.14,10.36,8.47
127417,118,15.25,1.8,10.87,5.57
127421,115,15.65,1.29,11.41,7.06
127425,115,15.65,1.18,8.71,9.18
127429,115,15.65,0.71,9.69,8.79
127433,115,15.65,0.51,6.63,7.88
127436,115,15.65,1.8,4,12.47
127440,115,15.65,1.49,2.98,10.87
127444,115,15.65,1.45,2.08,12.2
127449,115,15.65,0.43,3.84,7.77
127453,115,15.65,2.04,4.55,5.37
127457,115,15.65,1.41,5.77,3.57
127460,115,15.65,1.26,6.04,3.69
127464,115,15.65,1.14,8.16,5.1
127468,115,15.65,1.84,8.36,4.98
127472,115,15.65,2.71,6.71,6.47
127476,115,15.65,1.69,8.59,6.2
127480,115,15.65,0.9,6.63,7.14
127483,115,15.65,1.41,5.14,6.98
127488,115,15.65,1.84,1.33,8.28
127492,115,15.65,1.73,7.85,8.83
127496,115,15.65,1.26,6.04,11.77
127500,115,15.65,1.53,2,12.51
127504,115,15.65,1.77,6.24,10.98
127507,115,15.65,2.24,4.04,11.81
127511,115,15.65,1.29,7.06,10.59
127515,115,15.65,1.29,5.73,9.73
127519,115,15.65,2.67,7.14,10.71
127523,115,15.65,3.06,3.96,11.92
127527,115,15.65,2.79,3.69,12.4
127532,115,15.65,1.49,6.35,9.26
127535,115,15.65,1.65,0.82,11.65
127539,118,15.25,1.8,4.59,7.3
127543,118,15.25,2.47,5.84,7.26
127547,118,15.25,1.33,4.47,9.41
127551,118,15.25,1.45,3.18,11.81
127555,118,15.25,1.88,0.27,12.63
127559,118,15.25,0.55,2.59,13.65
127562,118,15.25,-0.35,-0.51,12.63
127566,118,15.25,-0.24,6.04,9.45
127570,118,15.25,0.35,6.59,9.1
127575,118,15.25,-0.12,4.67,7.1
127579,118,15.25,-0.27,4.35,10.55
127583,118,15.25,-0.35,2.16,11.53
127587,118,15.25,0.35,2.28,13.61
127590,118,15.25,-0.2,5.73,11.41
127594,118,15.25,-1.84,6.47,10.75
127598,118,15.25,-1.45,3.57,10.08
127602,118,15.25,-0.51,6.28,7.14
127606,118,15.25,-0.51,7.02,1.1
127610,118,15.25,-0.08,3.84,6.79
127613,118,15.25,0.08,4.08,7.65
127618,118,15.25,1.29,2.43,11.41
127622,118,15.25,1.22,0.94,12.87
127626,118,15.25,-0.16,2.94,11.57
127630,118,15.25,-0.16,3.73,15.53
127634,118,15.25,-0.24,5.49,12.28
127638,118,15.25,0.12,4,11.89
127642,118,15.25,-1.41,7.81,8.04
127645,106,16.98,-2,7.41,6.16
127649,106,16.98,-0.67,7.37,6.59
127653,106,16.98,-0.51,7.22,5.69
127657,106,16.98,-1.37,8.55,7.14
127662,106,16.98,-0.9,4.2,7.41
127666,106,16.98,-1.14,4.59,12.79
127669,106,16.98,-1.14,3.3,16.32
127673,106,16.98,0.75,4.63,13.53
127677,106,16.98,0.67,5.53,10
127681,106,16.98,1.22,7.18,9.18
127685,106,16.98,0.59,6.94,9.45
127689,106,16.98,-0.2,6.55,8.71
127692,106,16.98,1.18,5.22,12.63
127696,106,16.98,1.37,7.41,10.59
127700,106,16.98,0.63,2.47,13.38
127705,106,16.98,1.14,6.43,11.3
127709,106,16.98,0.9,3.73,7.57
127713,106,16.98,0,5.88,-0.04
127717,106,16.98,-0.47,6.98,4.75
127720,106,16.98,-0.59,7.49,5.14
127724,106,16.98,0.31,5.65,3.92
127728,106,16.98,1.02,7.1,7.41
127732,106,16.98,1.88,6.39,7.92
127736,106,16.98,-0.12,8.75,6.43
127739,106,16.98,-0.67,6.98,5.69
127744,106,16.98,0.71,8.36,5.92
127748,106,16.98,0.47,9.96,4.16
127752,106,16.98,-0.59,6.35,6.75
127756,106,16.98,1.22,3.57,10.2
127760,115,15.65,1.61,-0.47,15.61
127764,115,15.65,2.86,-1.96,18.75
127767,115,15.65,2.94,5.02,13.93
127771,115,15.65,0.98,7.45,9.96
127775,115,15.65,0.51,6.2,10
127779,115,15.65,-0.04,5.96,7.41
127783,115,15.65,0.35,5.22,11.34
127788,115,15.65,1.06,3.53,10.9
127792,115,15.65,1.53,3.26,12.67
127795,115,15.65,1.14,5.18,8.79
127799,115,15.65,1.37,3.65,4.51
127803,115,15.65,-0.75,6.55,6.28
127807,115,15.65,0.16,5.57,5.26
127811,115,15.65,0.12,6.16,6.35
127815,115,15.65,1.69,4.98,10.43
127818,115,15.65,0.67,7.02,11.1
127822,115,15.65,1.69,6.9,11.81
127826,115,15.65,1.53,6.63,10.36
127831,115,15.65,1.37,3.14,9.92
127835,115,15.65,1.8,2.04,8.71
127839,115,15.65,1.61,3.84,8
127842,115,15.65,2.16,2.2,11.77
127846,115,15.65,1.8,8.94,13.22
127850,115,15.65,2.51,7.92,14.98
127854,115,15.65,1.33,1.06,16.67
127858,115,15.65,0.59,1.77,15.57
127862,115,15.65,0.35,6.83,16.28
127866,106,16.98,0.47,13.42,7.88
127870,106,16.98,-0.55,13.42,5.61
127875,106,16.98,-0.08,7.69,8.12
127878,106,16.98,-0.08,6.04,9.41
127882,106,16.98,0.12,4.2,13.22
127886,106,16.98,0.47,6.94,10.98
127890,106,16.98,1.22,6.35,8.36
127894,106,16.98,1.1,5.06,6.08
127898,106,16.98,0.94,6.32,9.22
127901,106,16.98,0.47,10.87,8.55
127905,106,16.98,1.92,10.55,5.96
127909,106,16.98,3.45,10.87,10.28
127913,106,16.98,2.71,8.98,8.24
127918,106,16.98,1.65,9.3,7.77
127922,106,16.98,0.98,10.32,6.47
127926,106,16.98,1.57,9.45,5.96
127929,106,16.98,2.16,7.69,5.77
127933,106,16.98,2.51,3.69,5.81
127937,106,16.98,3.1,2.94,6.71
127941,106,16.98,2.82,7.49,3.77
127945,106,16.98,4.04,3.02,2
127948,106,16.98,2.98,4.98,4.98
127952,106,16.98,2,1.53,5.45
127956,106,16.98,0.9,0.78,7.3
127961,106,16.98,1.77,-0.67,8.51
127965,106,16.98,2.55,0.55,10.04
127969,106,16.98,1.92,2.98,9.77
127972,106,16.98,1.77,4.55,8.51
127976,106,16.98,0.78,6.63,10.9
127980,106,16.98,1.88,2.9,14.59
127984,106,16.98,2.43,3.96,15.42
127988,122,14.75,0.67,7.73,10.94
127992,122,14.75,2.63,8.24,10.36
127996,122,14.75,0.08,4.98,9.96
128000,122,14.75,1.14,12.28,6.94
128004,122,14.75,-0.43,8.87,7.18
128008,122,14.75,0.55,6.2,10.71
128012,122,14.75,2.24,4.79,9.61
128016,122,14.75,2.31,3.18,9.41
128020,122,14.75,2.08,2.39,9.34
128023,122,14.75,0.63,3.02,8.08
128027,122,14.75,1.69,6.75,6.86
128031,122,14.75,-0.12,8.16,10.55
128035,122,14.75,0.67,1.45,10.47
128039,122,14.75,1.29,4.31,12.12
128044,122,14.75,2.51,11.3,9.49
128048,122,14.75,1.26,13.18,7.02
128051,122,14.75,-0.71,9.77,4.86
128055,122,14.75,0.98,6.47,1.37
128059,122,14.75,0.82,8.16,-2.86
128063,122,14.75,1.18,9.1,-4.04
128067,122,14.75,1.02,7.18,-2.67
128071,122,14.75,1.8,-0.08,11.81
128074,122,14.75,2.75,-2.67,20.71
128078,122,14.75,1.53,-4.47,39.19
128082,122,14.75,4.86,-3.73,43.31
128087,122,14.75,4.43,4.55,31.07
128091,103,17.48,0.98,9.85,8.55
128095,103,17.48,1.18,13.1,8.59
128099,103,17.48,-3.26,11.41,15.49
128103,103,17.48,-2.43,6.59,7.69
128106,103,17.48,-0.12,10.59,10
128110,103,17.48,2.9,5.84,8.83
128114,103,17.48,0.59,2.67,9.38
128118,103,17.48,2.08,3.57,6.43
128122,103,17.48,0.59,1.8,2.67
128126,103,17.48,0.04,3.53,0.2
128130,103,17.48,-0.86,3.57,2.04
128134,103,17.48,0.51,3.45,4.94
128138,103,17.48,4.79,-0.86,9.85
128142,103,17.48,4.04,-1.57,13.42
128146,103,17.48,3.77,2.24,14.63
128150,103,17.48,1.92,2.35,19.26
128153,103,17.48,0.94,5.45,15.57
128157,103,17.48,-1.02,-1.45,15.34
128161,103,17.48,0.78,-1.02,14.16
128165,103,17.48,1.88,1.41,9.02
128169,103,17.48,1.06,6.35,7.1
128174,103,17.48,0.39,5.92,9.49
128178,103,17.48,1.33,5.41,12.55
128181,103,17.48,2.08,6,13.1
128185,103,17.48,0.9,5.81,12.51
128189,103,17.48,1.84,4.67,13.14
128193,103,17.48,2.28,6.9,6.86
128197,103,17.48,1.65,6.28,8.24
128201,110,16.36,2.55,7.88,8.59
128205,110,16.36,1.73,7.3,6.32
128208,110,16.36,4.35,8.16,6
128212,110,16.36,3.8,7.3,7.73
128217,110,16.36,3.06,7.69,9.02
128221,110,16.36,6.55,8.12,6.9
128225,110,16.36,1.14,5.33,10.12
128228,110,16.36,1.49,6.75,10.36
128232,110,16.36,1.84,4.39,9.45
128236,110,16.36,2.35,5.22,7.02
128240,110,16.36,2,5.73,3.14
128244,110,16.36,2.43,5.1,0.94
128248,110,16.36,1.65,7.14,1.18
128251,110,16.36,1.37,5.65,2.79
128256,110,16.36,1.49,6.16,5.1
128260,110,16.36,1.22,6.67,6.47
128264,110,16.36,1.45,4.9,8.98
128268,110,16.36,1.49,4.63,11.06
128272,110,16.36,-0.08,1.18,14.47
128275,110,16.36,-0.82,0.24,15.3
128279,110,16.36,-0.24,0.12,12.24
128283,110,16.36,-1.02,1.41,11.73
128287,110,16.36,-1.41,-2.39,13.96
128291,110,16.36,-0.94,1.84,8.51
128295,110,16.36,0,1.14,8.87
128300,110,16.36,1.02,13.57,1.77
128303,102,17.65,1.33,23.77,0.59
128307,102,17.65,2.82,21.77,7.61
128311,102,17.65,1.61,19.65,9.85
128315,102,17.65,0.55,13.61,20.12
128319,102,17.65,-1.1,1.14,27.03
128323,102,17.65,-2.43,-14.28,27.5
128327,102,17.65,0.75,-13.49,23.61
128331,102,17.65,2,-6.43,5.14
128335,102,17.65,7.85,1.33,-5.77
128338,102,17.65,5.18,6.86,-2.75
128343,102,17.65,3.69,7.1,1.33
128347,102,17.65,3.1,-1.41,5.81
128351,102,17.65,2.28,-1.96,11.3
128355,102,17.65,1.61,-0.12,15.81
128359,102,17.65,0.98,3.77,14.51
128363,102,17.65,0.82,9.1,13.02
128366,102,17.65,2.79,11.53,12.36
128370,102,17.65,0.94,4.39,9.96
128374,102,17.65,0.24,1.41,8.79
128378,102,17.65,0.94,1.69,7.88
128382,102,17.65,1.69,0.59,8.16
128387,102,17.65,1.96,5.41,8.08
128390,102,17.65,0.04,5.26,10.55
128394,102,17.65,0.35,8.04,11.89
128398,102,17.65,-0.82,5.88,11.02
128402,102,17.65,0.39,6.16,9.53
128406,102,17.65,0.71,7.88,6.63
128410,102,17.65,-0.08,5.53,8.79
128413,102,17.65,0.78,5.3,7.41
128417,102,17.65,1.84,3.77,10.08
128421,118,15.25,-0.35,7.45,7.14
128425,118,15.25,-0.98,4.63,7.02
128430,118,15.25,-0.94,6.35,5.92
128434,118,15.25,-1.33,2.55,7.14
128437,118,15.25,0.39,8.63,7.26
128441,118,15.25,-0.75,7.41,8.12
128445,118,15.25,0.39,7.61,9.73
128449,118,15.25,-0.75,7.53,9.22
128453,118,15.25,-0.71,8.36,6.94
128457,118,15.25,0.12,5.33,4.12
128460,118,15.25,-0.12,5.65,1.61
128464,118,15.25,0.71,5.77,4.71
128468,118,15.25,0.39,4.31,5.77
128473,118,15.25,0.78,4.98,6.9
128477,118,15.25,0.82,3.61,16.44
128481,118,15.25,1.22,2.82,22.79
128484,118,15.25,0.51,3.49,33.26
128488,118,15.25,1.18,3.33,30.95
128492,118,15.25,0.86,9.1,17.97
128496,118,15.25,-0.86,11.3,7.85
128500,118,15.25,-0.75,18.75,0.43
128504,118,15.25,0.63,13.34,-1.26
128508,118,15.25,1.65,9.89,1.14
128513,118,15.25,1.8,6.75,9.81
128516,118,15.25,2.12,4.35,12.79
128520,99,18.18,1.06,7.18,7.22
128524,99,18.18,2.08,3.45,10.94
128528,99,18.18,1.77,7.06,5.96
128532,99,18.18,2.59,4.67,2.82
128535,99,18.18,2.35,15.06,-3.53
128539,99,18.18,1.57,13.49,-3.02
128543,99,18.18,0.59,8.87,3.77
128547,99,18.18,-0.59,5.3,5.92
128551,99,18.18,1.37,7.37,6.51
128555,99,18.18,2.08,-4.86,12.55
128559,99,18.18,1.92,-1.1,13.49
128563,99,18.18,2.82,3.69,12.04
128567,99,18.18,1.22,1.57,11.81
128571,99,18.18,0.94,-0.55,13.65
128574,99,18.18,-2.51,-0.27,16.51
128578,99,18.18,0.2,5.37,14.44
128582,99,18.18,1.65,5.65,15.02
128586,99,18.18,0.67,5.96,13.14
128590,99,18.18,0.94,7.37,11.53
128594,99,18.18,1.37,7.18,11.1
128598,99,18.18,2.31,6.2,10.79
128602,99,18.18,2.98,4.39,7.41
128606,99,18.18,1.18,5.45,10.36
128610,99,18.18,1.02,2.39,11.34
128614,99,18.18,0.86,6.9,11.77
128618,99,18.18,-0.04,6.51,13.45
128621,99,18.18,1.53,3.73,11.49
128625,105,17.14,0.43,2.63,12.08
128629,105,17.14,1.41,4.31,13.85
128633,105,17.14,0.71,5.69,9.34
128637,105,17.14,1.14,6.32,6.24
128642,105,17.14,1.18,9.02,4.86
128645,105,17.14,1.96,2.24,4.67
128649,105,17.14,1.69,4.47,1.33
128653,105,17.14,-0.31,9.26,2.98
128657,105,17.14,-0.71,6,7.77
128661,105,17.14,-1.22,2.63,13.3
128665,105,17.14,-0.31,3.69,13.45
128668,105,17.14,-1.29,1.1,15.93
128672,105,17.14,-0.63,2.2,12.16
128676,105,17.14,-0.63,3.92,12.36
128680,105,17.14,0.75,6.59,8.63
128685,105,17.14,-1.06,2.59,3.84
128689,105,17.14,0.63,5.88,-2.75
128693,105,17.14,1.88,11.73,-1.96
128696,105,17.14,1.84,11.96,0.35
128700,105,17.14,4.67,14.24,6
128704,105,17.14,-0.2,2.98,15.42
128708,105,17.14,0.78,0.47,18.95
128712,105,17.14,3.06,-4.28,23.03
128716,105,17.14,2.98,-2.28,21.18
128720,105,17.14,3.37,1.02,17.46
128724,105,17.14,2.9,1.14,10.4
128728,103,17.48,2.63,4.35,8.43
128732,103,17.48,2.24,6.2,8.32
128736,103,17.48,0.98,3.1,13.69
128740,103,17.48,1.69,3.3,13.3
128744,103,17.48,0.27,1.53,15.14
128748,103,17.48,-0.59,0.31,14.83
128752,103,17.48,-0.59,3.06,15.26
128755,103,17.48,-1.1,7.06,12.2
128759,103,17.48,-1.45,9.81,11.92
128763,103,17.48,-3.53,9.73,13.1
128768,103,17.48,-0.51,4.47,14
128772,103,17.48,0.67,6.98,11.65
128776,103,17.48,0.55,4.79,6.12
128780,103,17.48,0.67,5.02,2.82
128783,103,17.48,-0.67,4.28,6.75
128787,103,17.48,-1.69,4.79,5.33
128791,103,17.48,-1.53,4.16,6.28
128795,103,17.48,-0.67,7.85,5.3
128799,103,17.48,-0.98,8.71,4.67
128803,103,17.48,0.2,8.28,3.37
128806,103,17.48,0.82,11.22,3.33
128811,103,17.48,1.02,8.36,2.67
128815,103,17.48,-1.06,2.71,7.61
128819,103,17.48,-0.04,2.86,3.26
128823,103,17.48,1.84,2.51,7.34
128827,103,17.48,1.84,1.45,7.06
128830,103,17.48,2.12,3.65,8.28
128834,103,17.48,0.16,2.51,11.26
128838,103,17.48,2.39,3.84,10.43
128842,114,15.79,3.33,8,11.61
128846,114,15.79,3.57,7.37,12.28
128850,114,15.79,3.53,3.61,15.14
128855,114,15.79,3.3,-0.31,15.34
128858,114,15.79,3.77,0.16,14.32
128862,114,15.79,2.79,2.59,11.61
128866,114,15.79,1.73,1.53,7.92
128870,114,15.79,2.12,3.61,5.57
128874,114,15.79,0.24,6.9,8.94
128878,114,15.79,1.18,8.87,1.45
128881,114,15.79,0.16,7.34,2.98
128885,114,15.79,0.27,8.43,5.33
128889,114,15.79,0.04,7.14,8.79
128893,114,15.79,1.65,3.26,10.08
128898,114,15.79,2.63,1.02,13.77
128902,114,15.79,0.08,2.79,15.85
128906,114,15.79,0,-0.43,10.94
128909,114,15.79,-0.51,7.14,9.1
128913,114,15.79,0.78,9.22,3.77
128917,114,15.79,0.43,8.75,0.9
128921,114,15.79,1.14,8.59,0.82
128925,114,15.79,0.82,7.57,2.12
128928,114,15.79,0,4.24,11.18
128932,114,15.79,0.24,6.43,15.38
128936,94,19.15,1.06,5.92,16.55
128941,94,19.15,2.12,5.22,18.44
128945,94,19.15,2.28,5.02,17.22
128949,94,19.15,1.29,6.9,16.59
128952,94,19.15,1.14,13.34,12.36
128956,94,19.15,0.16,9.81,10.94
128960,94,19.15,2.12,10.83,7.61
128964,94,19.15,1.61,11.77,7.61
128968,94,19.15,1.84,6.39,6.83
128972,94,19.15,1.41,7.61,5.3
128975,94,19.15,1.84,2.55,6
128979,94,19.15,2.75,3.3,5.37
128984,94,19.15,1.06,6.08,7.69
128988,94,19.15,2.16,5.26,9.57
128991,94,19.15,2.12,2.67,6.47
128995,94,19.15,2.79,4.39,7.3
128999,94,19.15,1.37,1.06,14.08
129003,94,19.15,1.18,1.1,15.42
129007,94,19.15,0.2,3.8,14.47
129010,94,19.15,0.43,2.63,14.47
129014,94,19.15,0.59,3.3,16.55
129018,94,19.15,0.55,4.24,15.77
129022,94,19.15,1.18,4.51,14.51
129027,94,19.15,0.67,5.84,10.16
129031,94,19.15,1.69,7.18,9.02
129034,94,19.15,-0.31,6.83,6.12
129038,94,19.15,-0.16,6.94,1.69
129042,94,19.15,0.35,5.57,1.22
129046,110,16.36,-0.27,5.06,2.79
129050,110,16.36,-0.31,4.12,1.33
129053,110,16.36,-0.24,6.24,4.75
129057,110,16.36,0.67,1.8,11.3
129061,110,16.36,0.27,4.71,13.18
129065,110,16.36,1.49,3.77,14.44
129070,110,16.36,1.22,8.55,9.77
129074,110,16.36,0.67,8.51,10.75
129078,110,16.36,1.61,8.83,7.14
129081,110,16.36,-0.71,8.55,8.87
129085,110,16.36,0.47,9.06,11.14
129089,110,16.36,1.06,7.34,12.98
129093,110,16.36,0.9,4.55,12.83
129097,110,16.36,1.77,5.53,11.96
129101,110,16.36,1.84,5.61,8.79
129104,110,16.36,2.04,8.16,5.96
129108,110,16.36,2.08,9.81,5.45
129113,110,16.36,2.39,9.96,1.77
129117,110,16.36,2.39,9.65,0.47
129121,110,16.36,2.39,8.79,1.14
129125,110,16.36,3.26,3.92,4.2
129128,110,16.36,2.98,2.04,8.98
129132,110,16.36,2.98,-0.04,9.45
129136,110,16.36,3.18,-0.24,13.65
129140,110,16.36,1.77,1.14,14.91
129144,98,18.37,2.39,7.57,10.04
129148,98,18.37,2.35,10.36,7.88
129152,98,18.37,3.06,13.96,5.06
129156,98,18.37,2.67,14.67,8.04
129160,98,18.37,3.02,14.04,6.86
129164,98,18.37,2.51,11.92,7.88
129168,98,18.37,1.18,0.04,17.42
129172,98,18.37,0.71,-9.69,22.16
129175,98,18.37,2.31,-12.12,18.63
129179,98,18.37,3.18,-6.2,10.9
129183,98,18.37,2.9,7.77,5.33
129187,98,18.37,0.39,5.26,0.63
129191,98,18.37,0.16,-0.59,0.71
129195,98,18.37,-0.35,1.88,3.88
129199,98,18.37,-0.04,-0.9,5.96
129203,98,18.37,2,1.33,11.89
129207,98,18.37,3.06,1.41,17.53
129211,98,18.37,3.14,3.14,20.01
129214,98,18.37,-2.55,6.51,16.75
129218,98,18.37,0.82,8.36,16.83
129222,98,18.37,-0.04,2.16,15.38
129226,98,18.37,1.26,8.94,4
129230,98,18.37,0.71,5.1,1.96
129233,98,18.37,0.86,6.24,6.71
129238,98,18.37,-0.27,4.9,10.59
129242,98,18.37,-0.2,5.18,10.98
129246,98,18.37,-1.53,1.61,10.04
129250,98,18.37,-0.59,-1.84,11.77
129254,98,18.37,1.22,1.41,5.77
129257,113,15.93,1.45,0.39,0.27
129261,113,15.93,1.41,7.37,0.2
129265,113,15.93,0.08,2.16,13.26
129269,113,15.93,1.88,-1.37,19.97
129273,113,15.93,2.08,-2.39,24.67
129277,113,15.93,4.67,1.06,21.93
129281,113,15.93,3.73,5.92,11.26
129285,113,15.93,2.2,13.14,3.77
129289,113,15.93,1.73,11.26,2.16
129293,113,15.93,1.49,7.34,4.71
129297,113,15.93,3.45,7.81,10.24
129301,113,15.93,2.24,2.86,14.83
129305,113,15.93,2.94,2.28,10.24
129309,113,15.93,2.51,5.77,3.33
129312,113,15.93,2.43,3.77,8.24
129316,113,15.93,1.8,4.35,10.08
129320,113,15.93,2.04,3.49,15.53
129325,113,15.93,2.28,2.08,15.22
129329,113,15.93,1.65,3.3,14.16
129333,113,15.93,1.14,10.28,7.02
129337,113,15.93,0.43,8.28,5.73
129340,113,15.93,1.02,10.43,6.08
129344,113,15.93,1.18,6.12,5.18
129348,113,15.93,0.9,4.98,7.57
129352,95,18.95,1.77,6.12,9.34
129356,95,18.95,0.39,4.94,10.47
129360,95,18.95,1.26,6.51,10.16
129363,95,18.95,0.47,6.71,10.9
129368,95,18.95,1.22,5.81,10.36
129372,95,18.95,0.98,6.55,10.43
129376,95,18.95,1.29,7.65,8.24
129380,95,18.95,0.59,9.85,4.67
129383,95,18.95,0.31,6,6.75
129387,95,18.95,-0.67,5.02,7.14
129391,95,18.95,-0.51,4.71,3.33
129395,95,18.95,0.51,3.06,7.06
129398,95,18.95,-1.02,2.47,9.81
129402,95,18.95,-0.04,1.73,5.14
129406,95,18.95,0.86,-0.35,7.37
129411,95,18.95,1.02,6.83,4
129415,95,18.95,1.26,6.67,4.16
129418,95,18.95,2.24,11.02,4.08
129422,95,18.95,2.2,7.1,8.16
129426,95,18.95,2.59,3.84,16.04
129430,95,18.95,2.2,4.79,15.93
129434,95,18.95,0.86,3.26,11.02
129437,95,18.95,0.86,0.39,10.79
129441,95,18.95,1.41,-1.06,10.28
129445,95,18.95,1.22,2.9,9.77
129449,95,18.95,0.86,2.16,12.51
129454,102,17.65,-0.12,1.69,14.12
129458,102,17.65,0.04,0.51,14.87
129461,102,17.65,0.27,4.67,10.08
129465,102,17.65,1.26,2.35,10.08
129469,102,17.65,0.12,-0.82,10.16
